USUBJID,AVISIT,AVISITN,AVISIT_ORDER,ADAE_SAS7BDAT_STUDYID,ADAE_SAS7BDAT_SAFFL,ADAE_SAS7BDAT_CRSPW8FL,ADAE_SAS7BDAT_TRTA,ADAE_SAS7BDAT_TRTAN,ADAE_SAS7BDAT_AESEQ,ADAE_SAS7BDAT_AESPID,ADAE_SAS7BDAT_AETERM,ADAE_SAS7BDAT_AELLT,ADAE_SAS7BDAT_AELLTCD,ADAE_SAS7BDAT_AEDECOD,ADAE_SAS7BDAT_AEPTCD,ADAE_SAS7BDAT_AEHLT,ADAE_SAS7BDAT_AEHLTCD,ADAE_SAS7BDAT_AEHLGT,ADAE_SAS7BDAT_AEHLGTCD,ADAE_SAS7BDAT_AEBODSYS,ADAE_SAS7BDAT_AEBDSYCD,ADAE_SAS7BDAT_AESOC,ADAE_SAS7BDAT_AESOCCD,ADAE_SAS7BDAT_AESEV,ADAE_SAS7BDAT_AESER,ADAE_SAS7BDAT_AEACN,ADAE_SAS7BDAT_AEREL,ADAE_SAS7BDAT_AEOUT,ADAE_SAS7BDAT_AESCONG,ADAE_SAS7BDAT_AESDISAB,ADAE_SAS7BDAT_AESDTH,ADAE_SAS7BDAT_AESHOSP,ADAE_SAS7BDAT_AESHOSPP,ADAE_SAS7BDAT_AESHOSPR,ADAE_SAS7BDAT_AESLIFE,ADAE_SAS7BDAT_AESMIE,ADAE_SAS7BDAT_AECONTRT,ADAE_SAS7BDAT_EPOCH,ADAE_SAS7BDAT_AESTDTC,ADAE_SAS7BDAT_ASTDT,ADAE_SAS7BDAT_ASTDTF,ADAE_SAS7BDAT_ASTDY,ADAE_SAS7BDAT_AEENDTC,ADAE_SAS7BDAT_AESTDY,ADAE_SAS7BDAT_AEENDY,ADAE_SAS7BDAT_AETRTEM,ADAE_SAS7BDAT_AEINF,ADAE_SAS7BDAT_AEINFTX,ADAE_SAS7BDAT_AETRLPRC,ADAE_SAS7BDAT_CRIT1,ADAE_SAS7BDAT_CRIT1FL,ADAE_SAS7BDAT_CRIT2,ADAE_SAS7BDAT_CRIT2FL,ADAE_SAS7BDAT_DOSEAEON,ADAE_SAS7BDAT_DOSAEONU,ADAE_SAS7BDAT_DOSESTDY,ADAE_SAS7BDAT_WK8FLAG,ADAE_SAS7BDAT_WK16FLAG,ADAE_SAS7BDAT_WK8CUTDT,ADAE_SAS7BDAT_WK8CTDTM,ADAE_SAS7BDAT_WK16CTDT,ADAE_SAS7BDAT_W16CTDTM,ADCM_SAS7BDAT_STUDYID,ADCM_SAS7BDAT_SUBJID,ADCM_SAS7BDAT_SITEID,ADCM_SAS7BDAT_RANDFL,ADCM_SAS7BDAT_CRSPW8FL,ADCM_SAS7BDAT_TRT01P,ADCM_SAS7BDAT_TRT01PN,ADCM_SAS7BDAT_PARAM,ADCM_SAS7BDAT_PARAMTYP,ADCM_SAS7BDAT_PARAMN,ADCM_SAS7BDAT_PARAMCD_6-MERCAP_AVALC,ADCM_SAS7BDAT_PARAMCD_AZATHIOP_AVALC,ADCM_SAS7BDAT_PARAMCD_BALSALAZ_AVALC,ADCM_SAS7BDAT_PARAMCD_BUDESONI_AVALC,ADCM_SAS7BDAT_PARAMCD_CIPROFLO_AVALC,ADCM_SAS7BDAT_PARAMCD_CORTICO_AVALC,ADCM_SAS7BDAT_PARAMCD_CYCLOSPO_AVALC,ADCM_SAS7BDAT_PARAMCD_MESALAMI_AVALC,ADCM_SAS7BDAT_PARAMCD_METHOTRE_AVALC,ADCM_SAS7BDAT_PARAMCD_METRONID_AVALC,ADCM_SAS7BDAT_PARAMCD_MYCOPHEN_AVALC,ADCM_SAS7BDAT_PARAMCD_OLSALAZI_AVALC,ADCM_SAS7BDAT_PARAMCD_RIFAXIMI_AVALC,ADCM_SAS7BDAT_PARAMCD_SIROLIMU_AVALC,ADCM_SAS7BDAT_PARAMCD_SULFASAL_AVALC,ADCM_SAS7BDAT_PARAMCD_TACROLIM_AVALC,ADEF_SAS7BDAT_STUDYID,ADEF_SAS7BDAT_SUBJID,ADEF_SAS7BDAT_SITEID,ADEF_SAS7BDAT_AGE,ADEF_SAS7BDAT_AGEU,ADEF_SAS7BDAT_AGEGR1,ADEF_SAS7BDAT_AGEGR1N,ADEF_SAS7BDAT_SEX,ADEF_SAS7BDAT_COUNTRY,ADEF_SAS7BDAT_COUNGR1,ADEF_SAS7BDAT_COUNGR1N,ADEF_SAS7BDAT_RACE,ADEF_SAS7BDAT_RACEGR1,ADEF_SAS7BDAT_RACEGR1N,ADEF_SAS7BDAT_BLWTKG,ADEF_SAS7BDAT_BLWTGR1,ADEF_SAS7BDAT_BLWTGR1N,ADEF_SAS7BDAT_UCDISDUR,ADEF_SAS7BDAT_UCDIGR1,ADEF_SAS7BDAT_UCDIGR1N,ADEF_SAS7BDAT_UCDISEXT,ADEF_SAS7BDAT_EXTMANIF,ADEF_SAS7BDAT_BLMAYO,ADEF_SAS7BDAT_BLMAGR1,ADEF_SAS7BDAT_BLMAGR1N,ADEF_SAS7BDAT_UCSVGR1,ADEF_SAS7BDAT_UCSVGR1N,ADEF_SAS7BDAT_RECTSSW8,ADEF_SAS7BDAT_ENDOW8,ADEF_SAS7BDAT_BLCRP,ADEF_SAS7BDAT_BCRPGR1,ADEF_SAS7BDAT_BCRPGR1N,ADEF_SAS7BDAT_BLUC1,ADEF_SAS7BDAT_BLUC2,ADEF_SAS7BDAT_BLUC3,ADEF_SAS7BDAT_BLCM6MP,ADEF_SAS7BDAT_BLCMCOR,ADEF_SAS7BDAT_BLCMATNF,ADEF_SAS7BDAT_BCORTUSE,ADEF_SAS7BDAT_PREATTNF,ADEF_SAS7BDAT_MPAZA1WK,ADEF_SAS7BDAT_RANDFL,ADEF_SAS7BDAT_CRSPW8FL,ADEF_SAS7BDAT_TRT01P,ADEF_SAS7BDAT_TRT01PN,ADEF_SAS7BDAT_ASEQ,ADEF_SAS7BDAT_PARAM,ADEF_SAS7BDAT_PARAMN,ADEF_SAS7BDAT_CHGCAT1,ADEF_SAS7BDAT_DTYPE,ADEF_SAS7BDAT_ABLFL,ADEF_SAS7BDAT_ANL01FL,ADEF_SAS7BDAT_BASE,ADEF_SAS7BDAT_CHG,ADEF_SAS7BDAT_ADT,ADEF_SAS7BDAT_ADY,ADEF_SAS7BDAT_WK8FLAG,ADEF_SAS7BDAT_WK8CUTDT,ADEF_SAS7BDAT_CORT08,ADEF_SAS7BDAT_CORT32,ADEF_SAS7BDAT_CORT08B,ADEF_SAS7BDAT_CORT32B,ADEF_SAS7BDAT_PARAMCD_CALSCORE_AVAL,ADEF_SAS7BDAT_PARAMCD_CRPSCORE_AVAL,ADEF_SAS7BDAT_PARAMCD_ENCSCORE_AVAL,ADEF_SAS7BDAT_PARAMCD_ENLSCORE_AVAL,ADEF_SAS7BDAT_PARAMCD_IBDQBOWL_AVAL,ADEF_SAS7BDAT_PARAMCD_IBDQEMOT_AVAL,ADEF_SAS7BDAT_PARAMCD_IBDQSOCL_AVAL,ADEF_SAS7BDAT_PARAMCD_IBDQSYST_AVAL,ADEF_SAS7BDAT_PARAMCD_IBDQTOT_AVAL,ADEF_SAS7BDAT_PARAMCD_LTFSCORE_AVAL,ADEF_SAS7BDAT_PARAMCD_MAYO_AVAL,ADEF_SAS7BDAT_PARAMCD_MYSENS3_AVAL,ADEF_SAS7BDAT_PARAMCD_MYSENS4_AVAL,ADEF_SAS7BDAT_PARAMCD_PCLINRMI_AVALC,ADEF_SAS7BDAT_PARAMCD_PGSCORE_AVAL,ADEF_SAS7BDAT_PARAMCD_PMAYO_AVAL,ADEF_SAS7BDAT_PARAMCD_RBSCORE_AVAL,ADEF_SAS7BDAT_PARAMCD_RBWSCORE_AVAL,ADEF_SAS7BDAT_PARAMCD_SCORE 1_AVAL,ADEF_SAS7BDAT_PARAMCD_SCORE 2_AVAL,ADEF_SAS7BDAT_PARAMCD_SCORE 3_AVAL,ADEF_SAS7BDAT_PARAMCD_SFSCORE_AVAL,ADEF_SAS7BDAT_PARAMCD_UCEIS_AVAL,ADEF_SAS7BDAT_PARAMCD_PCLINRSP_AVALC,ADEF_SAS7BDAT_PARAMCD_CLINRMI_AVALC,ADEF_SAS7BDAT_PARAMCD_CLINRMIL_AVALC,ADEF_SAS7BDAT_PARAMCD_CLINRSP_AVALC,ADEF_SAS7BDAT_PARAMCD_CLINRSPL_AVALC,ADEF_SAS7BDAT_PARAMCD_CLNRMIL_AVALC,ADEF_SAS7BDAT_PARAMCD_MISSCORE_AVAL,ADEF_SAS7BDAT_PARAMCD_MUCOSH_AVALC,ADEF_SAS7BDAT_PARAMCD_MUCOSHL_AVALC,ADEF_SAS7BDAT_PARAMCD_MYSENS1_AVAL,ADEF_SAS7BDAT_PARAMCD_AVGPRED_AVAL,ADEF_SAS7BDAT_PARAMCD_DCSAW8_AVALC,ADEG_SAS7BDAT_STUDYID,ADEG_SAS7BDAT_SUBJID,ADEG_SAS7BDAT_SAFFL,ADEG_SAS7BDAT_CRSPW8FL,ADEG_SAS7BDAT_TRTP,ADEG_SAS7BDAT_TRTPN,ADEG_SAS7BDAT_TRTA,ADEG_SAS7BDAT_TRTAN,ADEG_SAS7BDAT_EGSEQ,ADEG_SAS7BDAT_PARAMN,ADEG_SAS7BDAT_PARAM,ADEG_SAS7BDAT_EGDTC,ADEG_SAS7BDAT_EGDY,ADEG_SAS7BDAT_VISITNUM,ADEG_SAS7BDAT_VISIT,ADEG_SAS7BDAT_EGBLFL,ADEG_SAS7BDAT_ABLFL,ADEG_SAS7BDAT_ANL01FL,ADEG_SAS7BDAT_PARAMCD_INTP_AVALC,ADEXS_SAS7BDAT_STUDYID,ADEXS_SAS7BDAT_SAFFL,ADEXS_SAS7BDAT_CRSPW8FL,ADEXS_SAS7BDAT_VISITNUM,ADEXS_SAS7BDAT_VISIT,ADEXS_SAS7BDAT_PARAM,ADEXS_SAS7BDAT_TRTA,ADEXS_SAS7BDAT_TRTAN,ADEXS_SAS7BDAT_PARAMCD_CUMDOSE_AVAL,ADEXS_SAS7BDAT_PARAMCD_DRGCOMP_AVALC,ADEXS_SAS7BDAT_PARAMCD_DUREXP_AVAL,ADEXS_SAS7BDAT_PARAMCD_DURFUP_AVAL,ADLB_SAS7BDAT_STUDYID,ADLB_SAS7BDAT_SUBJID,ADLB_SAS7BDAT_SAFFL,ADLB_SAS7BDAT_CRSPW8FL,ADLB_SAS7BDAT_TRTP,ADLB_SAS7BDAT_TRTPN,ADLB_SAS7BDAT_TRTA,ADLB_SAS7BDAT_TRTAN,ADLB_SAS7BDAT_LBSEQ,ADLB_SAS7BDAT_LBCAT,ADLB_SAS7BDAT_LBSTNRLO,ADLB_SAS7BDAT_LBSTNRHI,ADLB_SAS7BDAT_LBSTNRC,ADLB_SAS7BDAT_LBNRIND,ADLB_SAS7BDAT_LBTOX,ADLB_SAS7BDAT_LBTOXGR,ADLB_SAS7BDAT_LBBLFL,ADLB_SAS7BDAT_VISITNUM,ADLB_SAS7BDAT_VISIT,ADLB_SAS7BDAT_LBDTC,ADLB_SAS7BDAT_LBDY,ADLB_SAS7BDAT_LBSPEC,ADLB_SAS7BDAT_LBMETHOD,ADLB_SAS7BDAT_LBSPCCND,ADLB_SAS7BDAT_LBFAST,ADLB_SAS7BDAT_PARAM,ADLB_SAS7BDAT_PARAMN,ADLB_SAS7BDAT_BASE,ADLB_SAS7BDAT_CHG,ADLB_SAS7BDAT_PCHG,ADLB_SAS7BDAT_SHIFT1,ADLB_SAS7BDAT_SHIFT1N,ADLB_SAS7BDAT_BNRIND,ADLB_SAS7BDAT_ANRIND,ADLB_SAS7BDAT_ANRLO,ADLB_SAS7BDAT_ANRHI,ADLB_SAS7BDAT_ANL01FL,ADLB_SAS7BDAT_ANL02FL,ADLB_SAS7BDAT_ANL03FL,ADLB_SAS7BDAT_ANL04FL,ADLB_SAS7BDAT_APBLFL,ADLB_SAS7BDAT_ABLFL,ADLB_SAS7BDAT_WK8FLAG,ADLB_SAS7BDAT_WK8CUTDT,ADLB_SAS7BDAT_WK8CTDTM,ADLB_SAS7BDAT_PARAMCD_ALBS_AVAL,ADLB_SAS7BDAT_PARAMCD_ALP_AVAL,ADLB_SAS7BDAT_PARAMCD_ALT_AVAL,ADLB_SAS7BDAT_PARAMCD_AST_AVAL,ADLB_SAS7BDAT_PARAMCD_BASO_AVAL,ADLB_SAS7BDAT_PARAMCD_BASOLE_AVAL,ADLB_SAS7BDAT_PARAMCD_BILI_AVAL,ADLB_SAS7BDAT_PARAMCD_BUN_AVAL,ADLB_SAS7BDAT_PARAMCD_CA_AVAL,ADLB_SAS7BDAT_PARAMCD_CALPROSA_AVAL,ADLB_SAS7BDAT_PARAMCD_CD1656_AVAL,ADLB_SAS7BDAT_PARAMCD_CD1656LY_AVAL,ADLB_SAS7BDAT_PARAMCD_CD19_AVAL,ADLB_SAS7BDAT_PARAMCD_CD19LY_AVAL,ADLB_SAS7BDAT_PARAMCD_CD3_AVAL,ADLB_SAS7BDAT_PARAMCD_CD3LY_AVAL,ADLB_SAS7BDAT_PARAMCD_CD4_AVAL,ADLB_SAS7BDAT_PARAMCD_CD4CMTBF_AVAL,ADLB_SAS7BDAT_PARAMCD_CD4EMTBF_AVAL,ADLB_SAS7BDAT_PARAMCD_CD4LY_AVAL,ADLB_SAS7BDAT_PARAMCD_CD4NTBF_AVAL,ADLB_SAS7BDAT_PARAMCD_CD4NTCBF_AVAL,ADLB_SAS7BDAT_PARAMCD_CD4T1CD4_AVAL,ADLB_SAS7BDAT_PARAMCD_CD4TH1_AVAL,ADLB_SAS7BDAT_PARAMCD_CD4TRCBF_AVAL,ADLB_SAS7BDAT_PARAMCD_CD4TRTBF_AVAL,ADLB_SAS7BDAT_PARAMCD_CD8_AVAL,ADLB_SAS7BDAT_PARAMCD_CD8CMTBF_AVAL,ADLB_SAS7BDAT_PARAMCD_CD8EMTBF_AVAL,ADLB_SAS7BDAT_PARAMCD_CD8LY_AVAL,ADLB_SAS7BDAT_PARAMCD_CD8NTBF_AVAL,ADLB_SAS7BDAT_PARAMCD_CD8NTCBF_AVAL,ADLB_SAS7BDAT_PARAMCD_CD8TDEBF_AVAL,ADLB_SAS7BDAT_PARAMCD_CDFTXNS_AVALC,ADLB_SAS7BDAT_PARAMCD_CHOL_AVAL,ADLB_SAS7BDAT_PARAMCD_CK_AVAL,ADLB_SAS7BDAT_PARAMCD_CL_AVAL,ADLB_SAS7BDAT_PARAMCD_CREAT_AVAL,ADLB_SAS7BDAT_PARAMCD_CREATCLR_AVAL,ADLB_SAS7BDAT_PARAMCD_CRPH_AVAL,ADLB_SAS7BDAT_PARAMCD_EOS_AVAL,ADLB_SAS7BDAT_PARAMCD_EOSLE_AVAL,ADLB_SAS7BDAT_PARAMCD_HBCABS_AVALC,ADLB_SAS7BDAT_PARAMCD_HBSAB_AVALC,ADLB_SAS7BDAT_PARAMCD_HBSAG_AVALC,ADLB_SAS7BDAT_PARAMCD_HCAB_AVALC,ADLB_SAS7BDAT_PARAMCD_HCT_AVAL,ADLB_SAS7BDAT_PARAMCD_HDL_AVAL,ADLB_SAS7BDAT_PARAMCD_HGB_AVAL,ADLB_SAS7BDAT_PARAMCD_HIV12AB_AVALC,ADLB_SAS7BDAT_PARAMCD_K_AVAL,ADLB_SAS7BDAT_PARAMCD_LDLC_AVAL,ADLB_SAS7BDAT_PARAMCD_LTFSA_AVALC,ADLB_SAS7BDAT_PARAMCD_LYM_AVAL,ADLB_SAS7BDAT_PARAMCD_LYMLE_AVAL,ADLB_SAS7BDAT_PARAMCD_MONO_AVAL,ADLB_SAS7BDAT_PARAMCD_MONOLE_AVAL,ADLB_SAS7BDAT_PARAMCD_MYTBGIRQ_AVALC,ADLB_SAS7BDAT_PARAMCD_NEUTSG_AVAL,ADLB_SAS7BDAT_PARAMCD_NEUTSGLE_AVAL,ADLB_SAS7BDAT_PARAMCD_PHOS_AVAL,ADLB_SAS7BDAT_PARAMCD_PLAT_AVAL,ADLB_SAS7BDAT_PARAMCD_PROT_AVAL,ADLB_SAS7BDAT_PARAMCD_SODIUM_AVAL,ADLB_SAS7BDAT_PARAMCD_TRIG_AVAL,ADLB_SAS7BDAT_PARAMCD_WBC_AVAL,ADLB_SAS7BDAT_PARAMCD_LTFSA_AVAL,ADLB_SAS7BDAT_PARAMCD_BILI_AVALC,ADLB_SAS7BDAT_PARAMCD_HCGS_AVALC,ADLB_SAS7BDAT_PARAMCD_CALPROSA_AVALC,ADLB_SAS7BDAT_PARAMCD_CD1656_AVALC,ADLB_SAS7BDAT_PARAMCD_CD1656LY_AVALC,ADLB_SAS7BDAT_PARAMCD_CD19_AVALC,ADLB_SAS7BDAT_PARAMCD_CD19LY_AVALC,ADLB_SAS7BDAT_PARAMCD_CD3_AVALC,ADLB_SAS7BDAT_PARAMCD_CD3LY_AVALC,ADLB_SAS7BDAT_PARAMCD_CD4_AVALC,ADLB_SAS7BDAT_PARAMCD_CD4CMTBF_AVALC,ADLB_SAS7BDAT_PARAMCD_CD4EMTBF_AVALC,ADLB_SAS7BDAT_PARAMCD_CD4LY_AVALC,ADLB_SAS7BDAT_PARAMCD_CD4NTBF_AVALC,ADLB_SAS7BDAT_PARAMCD_CD4NTCBF_AVALC,ADLB_SAS7BDAT_PARAMCD_CD4T1CD4_AVALC,ADLB_SAS7BDAT_PARAMCD_CD4TH1_AVALC,ADLB_SAS7BDAT_PARAMCD_CD4TRCBF_AVALC,ADLB_SAS7BDAT_PARAMCD_CD4TRTBF_AVALC,ADLB_SAS7BDAT_PARAMCD_CD8_AVALC,ADLB_SAS7BDAT_PARAMCD_CD8CMTBF_AVALC,ADLB_SAS7BDAT_PARAMCD_CD8EMTBF_AVALC,ADLB_SAS7BDAT_PARAMCD_CD8LY_AVALC,ADLB_SAS7BDAT_PARAMCD_CD8NTBF_AVALC,ADLB_SAS7BDAT_PARAMCD_CD8NTCBF_AVALC,ADLB_SAS7BDAT_PARAMCD_CD8TDEBF_AVALC,ADLB_SAS7BDAT_PARAMCD_CHOL_AVALC,ADLB_SAS7BDAT_PARAMCD_HDL_AVALC,ADLB_SAS7BDAT_PARAMCD_LDLC_AVALC,ADLB_SAS7BDAT_PARAMCD_TRIG_AVALC,ADLB_SAS7BDAT_PARAMCD_FSH_AVAL,ADLB_SAS7BDAT_PARAMCD_PLAT_AVALC,ADLB_SAS7BDAT_PARAMCD_CKMBA_AVAL,ADLB_SAS7BDAT_PARAMCD_TROPONTS_AVALC,ADLB_SAS7BDAT_PARAMCD_HBVVLD_AVALC,ADLB_SAS7BDAT_PARAMCD_BASO_AVALC,ADLB_SAS7BDAT_PARAMCD_BASOLE_AVALC,ADLB_SAS7BDAT_PARAMCD_EOS_AVALC,ADLB_SAS7BDAT_PARAMCD_EOSLE_AVALC,ADLB_SAS7BDAT_PARAMCD_HCT_AVALC,ADLB_SAS7BDAT_PARAMCD_HGB_AVALC,ADLB_SAS7BDAT_PARAMCD_LYM_AVALC,ADLB_SAS7BDAT_PARAMCD_LYMLE_AVALC,ADLB_SAS7BDAT_PARAMCD_MONO_AVALC,ADLB_SAS7BDAT_PARAMCD_MONOLE_AVALC,ADLB_SAS7BDAT_PARAMCD_NEUTSG_AVALC,ADLB_SAS7BDAT_PARAMCD_NEUTSGLE_AVALC,ADLB_SAS7BDAT_PARAMCD_WBC_AVALC,ADLB_SAS7BDAT_PARAMCD_CRPH_AVALC,ADLB_SAS7BDAT_PARAMCD_LDLD_AVAL,ADLB_SAS7BDAT_PARAMCD_AST_AVALC,ADLB_SAS7BDAT_PARAMCD_ALBS_AVALC,ADLB_SAS7BDAT_PARAMCD_ALP_AVALC,ADLB_SAS7BDAT_PARAMCD_ALT_AVALC,ADLB_SAS7BDAT_PARAMCD_BUN_AVALC,ADLB_SAS7BDAT_PARAMCD_CA_AVALC,ADLB_SAS7BDAT_PARAMCD_CK_AVALC,ADLB_SAS7BDAT_PARAMCD_CL_AVALC,ADLB_SAS7BDAT_PARAMCD_CREAT_AVALC,ADLB_SAS7BDAT_PARAMCD_CREATCLR_AVALC,ADLB_SAS7BDAT_PARAMCD_K_AVALC,ADLB_SAS7BDAT_PARAMCD_PHOS_AVALC,ADLB_SAS7BDAT_PARAMCD_PROT_AVALC,ADLB_SAS7BDAT_PARAMCD_SODIUM_AVALC,ADLB_SAS7BDAT_PARAMCD_CKMBA_AVALC,ADLB_SAS7BDAT_PARAMCD_FSH_AVALC,ADLB_SAS7BDAT_PARAMCD_METAMY_AVAL,ADLB_SAS7BDAT_PARAMCD_METAMYLE_AVAL,ADLB_SAS7BDAT_PARAMCD_RBCNURBC_AVAL,ADLB_SAS7BDAT_PARAMCD_MYCY_AVAL,ADLB_SAS7BDAT_PARAMCD_MYCYLE_AVAL,ADLB_SAS7BDAT_PARAMCD_BASOIM_AVALC,ADLB_SAS7BDAT_PARAMCD_HAIRYCE_AVALC,ADLB_SAS7BDAT_PARAMCD_MLIGCE_AVALC,ADLB_SAS7BDAT_PARAMCD_PLSIMCE_AVALC,ADLB_SAS7BDAT_PARAMCD_PLSMCE_AVALC,ADLB_SAS7BDAT_PARAMCD_PLSPCE_AVALC,ADLB_SAS7BDAT_PARAMCD_LYMAT_AVAL,ADLB_SAS7BDAT_PARAMCD_LYMATLE_AVAL,ADLB_SAS7BDAT_PARAMCD_NEUTB_AVAL,ADLB_SAS7BDAT_PARAMCD_NEUTBLE_AVAL,ADLB_SAS7BDAT_PARAMCD_LDLD_AVALC,ADMI_SAS7BDAT_W8ENCSCO,ADMI_SAS7BDAT_W8PGSCOR,ADMI_SAS7BDAT_W8RBSCOR,ADMI_SAS7BDAT_W8SFSCOR,ADMI_SAS7BDAT_W0ENCSCO,ADMI_SAS7BDAT_W0PGSCOR,ADMI_SAS7BDAT_W0RBSCOR,ADMI_SAS7BDAT_W0SFSCOR,ADMI_SAS7BDAT_W2PGSCOR,ADMI_SAS7BDAT_W2RBSCOR,ADMI_SAS7BDAT_W2SFSCOR,ADMI_SAS7BDAT_W4PGSCOR,ADMI_SAS7BDAT_W4RBSCOR,ADMI_SAS7BDAT_W4SFSCOR,ADMI_SAS7BDAT_W4ENCSCO,ADMI_SAS7BDAT_W4ENLSCO,ADMI_SAS7BDAT_TRT01A,ADMI_SAS7BDAT_BCORTUSE,ADMI_SAS7BDAT_PREATTNF,ADMI_SAS7BDAT_W8MAYO,ADMI_SAS7BDAT_W8TF,ADPC_SAS7BDAT_STUDYID,ADPC_SAS7BDAT_SRCDOM,ADPC_SAS7BDAT_SRCSEQ,ADPC_SAS7BDAT_PARAM,ADPC_SAS7BDAT_PCSTRESU,ADPC_SAS7BDAT_PARCAT1,ADPC_SAS7BDAT_ADT,ADPC_SAS7BDAT_ADTM,ADPC_SAS7BDAT_ATM,ADPC_SAS7BDAT_ADY,ADPC_SAS7BDAT_ATPT,ADPC_SAS7BDAT_ATPTN,ADPC_SAS7BDAT_ANL01FL,ADPC_SAS7BDAT_ANL02FL,ADPC_SAS7BDAT_PKFL,ADPC_SAS7BDAT_AGE,ADPC_SAS7BDAT_COUNTRY,ADPC_SAS7BDAT_RACE,ADPC_SAS7BDAT_SEX,ADPC_SAS7BDAT_TRTA,ADPC_SAS7BDAT_TRTAN,ADPC_SAS7BDAT_TRTP,ADPC_SAS7BDAT_TRTPN,ADPC_SAS7BDAT_PCLLOQ,ADPC_SAS7BDAT_PARAMCD_STDRG_AVAL,ADSL_SAS7BDAT_STUDYID,ADSL_SAS7BDAT_SITEID,ADSL_SAS7BDAT_SUBJID,ADSL_SAS7BDAT_AGE,ADSL_SAS7BDAT_AGEU,ADSL_SAS7BDAT_AGEGR1,ADSL_SAS7BDAT_AGEGR1N,ADSL_SAS7BDAT_SEX,ADSL_SAS7BDAT_COUNTRY,ADSL_SAS7BDAT_COUNGR1,ADSL_SAS7BDAT_COUNGR1N,ADSL_SAS7BDAT_RACE,ADSL_SAS7BDAT_RACEGR1,ADSL_SAS7BDAT_RACEGR1N,ADSL_SAS7BDAT_RACEGR2,ADSL_SAS7BDAT_RACEGR2N,ADSL_SAS7BDAT_SAFFL,ADSL_SAS7BDAT_RANDFL,ADSL_SAS7BDAT_CRSPW8FL,ADSL_SAS7BDAT_ARM,ADSL_SAS7BDAT_ARMCD,ADSL_SAS7BDAT_TRT01P,ADSL_SAS7BDAT_TRT01PN,ADSL_SAS7BDAT_TRT02P,ADSL_SAS7BDAT_TRT02PN,ADSL_SAS7BDAT_TRT01A,ADSL_SAS7BDAT_TRT01AN,ADSL_SAS7BDAT_TRT02A,ADSL_SAS7BDAT_TRT02AN,ADSL_SAS7BDAT_RANDDT,ADSL_SAS7BDAT_TRTSDT,ADSL_SAS7BDAT_TRTSDTM,ADSL_SAS7BDAT_TRTEDT,ADSL_SAS7BDAT_TRTEDTM,ADSL_SAS7BDAT_TR01SDT,ADSL_SAS7BDAT_TR01STM,ADSL_SAS7BDAT_TR01SDTM,ADSL_SAS7BDAT_TR01EDT,ADSL_SAS7BDAT_TR01ETM,ADSL_SAS7BDAT_TR01EDTM,ADSL_SAS7BDAT_TR02SDT,ADSL_SAS7BDAT_TR02STM,ADSL_SAS7BDAT_TR02SDTM,ADSL_SAS7BDAT_TR02EDT,ADSL_SAS7BDAT_TR02ETM,ADSL_SAS7BDAT_TR02EDTM,ADSL_SAS7BDAT_AP08SDT,ADSL_SAS7BDAT_AP08SDY,ADSL_SAS7BDAT_AP16SDT,ADSL_SAS7BDAT_AP16SDY,ADSL_SAS7BDAT_BLHTCM,ADSL_SAS7BDAT_BLWTKG,ADSL_SAS7BDAT_BLWTGR1,ADSL_SAS7BDAT_BLWTGR1N,ADSL_SAS7BDAT_BLSMOKST,ADSL_SAS7BDAT_UCDISDUR,ADSL_SAS7BDAT_UCDIGR1,ADSL_SAS7BDAT_UCDIGR1N,ADSL_SAS7BDAT_UCDISEXT,ADSL_SAS7BDAT_EXTMANIF,ADSL_SAS7BDAT_BLMAYO,ADSL_SAS7BDAT_BLMAGR1,ADSL_SAS7BDAT_BLMAGR1N,ADSL_SAS7BDAT_UCSVGR1,ADSL_SAS7BDAT_UCSVGR1N,ADSL_SAS7BDAT_BLFECC,ADSL_SAS7BDAT_BLFECL,ADSL_SAS7BDAT_BLCRP,ADSL_SAS7BDAT_BCRPGR1,ADSL_SAS7BDAT_BCRPGR1N,ADSL_SAS7BDAT_BLUC1,ADSL_SAS7BDAT_BLUC2,ADSL_SAS7BDAT_BLUC3,ADSL_SAS7BDAT_BLUC4,ADSL_SAS7BDAT_BLUC5,ADSL_SAS7BDAT_BLCMH1R,ADSL_SAS7BDAT_BLCMH1I,ADSL_SAS7BDAT_BLCMH2R,ADSL_SAS7BDAT_BLCMH2D,ADSL_SAS7BDAT_BLCMH2I,ADSL_SAS7BDAT_BLCMH3R,ADSL_SAS7BDAT_BLCMH3I,ADSL_SAS7BDAT_BCORTUSE,ADSL_SAS7BDAT_PREATTNF,ADSL_SAS7BDAT_ETHNIC,ADSL_SAS7BDAT_BRTHDTC,ADSL_SAS7BDAT_RFSTDTC,ADSL_SAS7BDAT_DTHFL,ADSL_SAS7BDAT_DTHDTC,ADSL_SAS7BDAT_DTHDY,ADSL_SAS7BDAT_INVID,ADSL_SAS7BDAT_INVNAM,ADSL_SAS7BDAT_UNBLDTC,ADSL_SAS7BDAT_UNBLDY,ADSL_SAS7BDAT_UNBLREAS,ADTF_SAS7BDAT_STUDYID,ADTF_SAS7BDAT_ADT,ADTF_SAS7BDAT_ADY,ADTF_SAS7BDAT_SUBJID,ADTF_SAS7BDAT_SITEID,ADTF_SAS7BDAT_AGE,ADTF_SAS7BDAT_AGEU,ADTF_SAS7BDAT_SEX,ADTF_SAS7BDAT_RACE,ADTF_SAS7BDAT_ETHNIC,ADTF_SAS7BDAT_COUNTRY,ADTF_SAS7BDAT_RANDFL,ADTF_SAS7BDAT_CRSPW8FL,ADTF_SAS7BDAT_ANL01FL,ADTF_SAS7BDAT_ANL02FL,ADTF_SAS7BDAT_ANL03FL,ADTF_SAS7BDAT_TRT01P,ADTF_SAS7BDAT_TRT01PN,ADTF_SAS7BDAT_TRTFCRIT,ADTF_SAS7BDAT_TRTFREAS,ADTF_SAS7BDAT_TFMEDCAT,ADVS_SAS7BDAT_STUDYID,ADVS_SAS7BDAT_SITEID,ADVS_SAS7BDAT_SUBJID,ADVS_SAS7BDAT_SAFFL,ADVS_SAS7BDAT_VSDTC,ADVS_SAS7BDAT_VISITNUM,ADVS_SAS7BDAT_VISIT,ADVS_SAS7BDAT_VSSEQ,ADVS_SAS7BDAT_TRTA,ADVS_SAS7BDAT_TRTAN,ADVS_SAS7BDAT_PARAM,ADVS_SAS7BDAT_PARAMN,ADVS_SAS7BDAT_PARAMCD_DIABP_AVAL,ADVS_SAS7BDAT_PARAMCD_HEIGHT_AVAL,ADVS_SAS7BDAT_PARAMCD_HR_AVAL,ADVS_SAS7BDAT_PARAMCD_RESP_AVAL,ADVS_SAS7BDAT_PARAMCD_SYSBP_AVAL,ADVS_SAS7BDAT_PARAMCD_WEIGHT_AVAL,CRAEDIFF_EUDRACT_SAS7BDAT_INV,CRAEDIFF_EUDRACT_SAS7BDAT_TRTA,CRAEDIFF_EUDRACT_SAS7BDAT_AEBODSYS,CRAEDIFF_EUDRACT_SAS7BDAT_AEDECOD,CRAEDIFF_EUDRACT_SAS7BDAT_AEDICT,CRAEDIFF_EUDRACT_SAS7BDAT_TRTGRP,CRAEDIFF_EUDRACT_SAS7BDAT_STUDYID,CRAEDIFF_EUDRACT_SAS7BDAT_SAFFL,CRAEDIFF_EUDRACT_SAS7BDAT_CRSPW8FL,CRAEDIFF_EUDRACT_SAS7BDAT_TRTAN,CRAEDIFF_EUDRACT_SAS7BDAT_AESEQ,CRAEDIFF_EUDRACT_SAS7BDAT_AESPID,CRAEDIFF_EUDRACT_SAS7BDAT_AETERM,CRAEDIFF_EUDRACT_SAS7BDAT_AELLT,CRAEDIFF_EUDRACT_SAS7BDAT_AELLTCD,CRAEDIFF_EUDRACT_SAS7BDAT_AEPTCD,CRAEDIFF_EUDRACT_SAS7BDAT_AEHLT,CRAEDIFF_EUDRACT_SAS7BDAT_AEHLTCD,CRAEDIFF_EUDRACT_SAS7BDAT_AEHLGT,CRAEDIFF_EUDRACT_SAS7BDAT_AEHLGTCD,CRAEDIFF_EUDRACT_SAS7BDAT_AEBDSYCD,CRAEDIFF_EUDRACT_SAS7BDAT_AESOC,CRAEDIFF_EUDRACT_SAS7BDAT_AESOCCD,CRAEDIFF_EUDRACT_SAS7BDAT_AESEV,CRAEDIFF_EUDRACT_SAS7BDAT_AESER,CRAEDIFF_EUDRACT_SAS7BDAT_AEACN,CRAEDIFF_EUDRACT_SAS7BDAT_AEREL,CRAEDIFF_EUDRACT_SAS7BDAT_AEOUT,CRAEDIFF_EUDRACT_SAS7BDAT_AESCONG,CRAEDIFF_EUDRACT_SAS7BDAT_AESDISAB,CRAEDIFF_EUDRACT_SAS7BDAT_AESDTH,CRAEDIFF_EUDRACT_SAS7BDAT_AESHOSP,CRAEDIFF_EUDRACT_SAS7BDAT_AESHOSPP,CRAEDIFF_EUDRACT_SAS7BDAT_AESHOSPR,CRAEDIFF_EUDRACT_SAS7BDAT_AESLIFE,CRAEDIFF_EUDRACT_SAS7BDAT_AESMIE,CRAEDIFF_EUDRACT_SAS7BDAT_AECONTRT,CRAEDIFF_EUDRACT_SAS7BDAT_EPOCH,CRAEDIFF_EUDRACT_SAS7BDAT_AESTDTC,CRAEDIFF_EUDRACT_SAS7BDAT_ASTDT,CRAEDIFF_EUDRACT_SAS7BDAT_ASTDTF,CRAEDIFF_EUDRACT_SAS7BDAT_ASTDY,CRAEDIFF_EUDRACT_SAS7BDAT_AEENDTC,CRAEDIFF_EUDRACT_SAS7BDAT_AESTDY,CRAEDIFF_EUDRACT_SAS7BDAT_AEENDY,CRAEDIFF_EUDRACT_SAS7BDAT_AETRTEM,CRAEDIFF_EUDRACT_SAS7BDAT_AEINF,CRAEDIFF_EUDRACT_SAS7BDAT_AEINFTX,CRAEDIFF_EUDRACT_SAS7BDAT_AETRLPRC,CRAEDIFF_EUDRACT_SAS7BDAT_CRIT1,CRAEDIFF_EUDRACT_SAS7BDAT_CRIT1FL,CRAEDIFF_EUDRACT_SAS7BDAT_CRIT2,CRAEDIFF_EUDRACT_SAS7BDAT_CRIT2FL,CRAEDIFF_EUDRACT_SAS7BDAT_DOSEAEON,CRAEDIFF_EUDRACT_SAS7BDAT_DOSEAEONU,CRAEDIFF_EUDRACT_SAS7BDAT_DOSESTDY,CRAEDIFF_EUDRACT_SAS7BDAT_WK8FLAG,CRAEDIFF_EUDRACT_SAS7BDAT_WK16FLAG,CRAEDIFF_EUDRACT_SAS7BDAT_WK8CUTDT,CRAEDIFF_EUDRACT_SAS7BDAT_WK8CUTDTM,CRAEDIFF_EUDRACT_SAS7BDAT_WK16CUTDT,CRAEDIFF_EUDRACT_SAS7BDAT_WK16CUTDTM,CRAEDIFF_EUDRACT_SAS7BDAT_SKIP,CRAEDIFF_EUDRACT_SAS7BDAT__IDX,CRAEDIFF_EUDRACT_SAS7BDAT_XTRTPN,CRAEDIFF_EUDRACT_SAS7BDAT_AERELN,CRAEDIFF_EUDRACT_SAS7BDAT_DEATHALL,CRAEDIFF_EUDRACT_SAS7BDAT_DEATHAE,CRAEDIFF_EUDRACT_SAS7BDAT_CTRTA,CRAEDIFF_EUDRACT_SAS7BDAT_CUTOFF,CRAEDIFF_EUDRACT_SAS7BDAT_AESEL1,CRAEDIFF_EUDRACT_SAS7BDAT_AESEL2,CRAEDIFF_EUDRACT_SAS7BDAT_AESEL3,CRAEDIFF_EUDRACT_SAS7BDAT_MAXPERC
54781532UCO2001-001,SCREENING,10000,10000-SCREENING,,,,,,,,,,,,,,,,,,,,,,,,,,,,,,,,,,,,,,,,,,,,,,,,,,,,,,,,,,,,,,,,,,,,,,,,,,,,,,,,,,,,,,54781532UCO2001,1.0,US00920,57.0,YEARS,>= 40 years,2.0,M,USA,North America,1.0,WHITE,Caucasian,1.0,84.4,>= 75 kg,2.0,3.0,<= 5 years,1.0,LIMITED TO LEFT SIDE OF COLON,Present,11.0,>= 9,2.0,Severe,2.0,0.0,3.0,12.8,>= 3 mg/L,2.0,N,Y,N,Y,Y,Y,Y,Y,N,Y,N,Placebo,1.0,8 | 4 | 7 | 2 | 3 | 1,Partial Mayo Clinical Remission | Physicians Global Assessment | Partial Mayo Score | Rectal Bleeding | Worse Rectal Bleeding | Stool Frequency,22 | 4 | 8 | 2 | 3 | 1,,Derived | ,,Y,,,2013-11-26 00:00:00,-56,Y,2014-03-19,Y,Y,N,N,,,,,,,,,,,,,,N,3.0,8,2.0,3.0,,,,3.0,,,,,,,,,,,,,,,,,,,,,,,,,,,,,,,,,,,,,,,,,,,,,54781532UCO2001,1.0,Y,N,Placebo to JNJ-54781532 150 mg QD,6.0,Placebo,1.0,1 | 13 | 25 | 37 | 49 | 61 | 73 | 98 | 110 | 122 | 149 | 173 | 185 | 197 | 213 | 225 | 237 | 249 | 261 | 273 | 285 | 297 | 309 | 321 | 333 | 345 | 357 | 369,CHEMISTRY | HEMATOLOGY,33 | 35 | 6 | 11 | 3.42 | 1.428 | 2.07085 | 18 | 94 | 44.2 | 3.4 | 0.71038 | 61 | 132 | 0 | 0.39 | 127 | 0.91 | 15.4 | 0.12 | 2.6 | 1.96 | 40.5 | 140 | 3.8,49 | 131 | 43 | 36 | 20.52 | 8.568 | 2.6447 | 198 | 112 | 114.92 | 5.4 | 1.64679 | 84 | 147 | 0.2 | 2 | 0.57 | 6.8 | 0.54 | 181 | 4.28 | 48.5 | 0.92 | 10.1 | 7.23 | 75 | 400 | 10.7,,NORMAL,,,,10000,SCREENING,2013-12-04T13:55,-48,SERUM | ,,ROOM TEMPERATURE,,"SERUM Albumin (g/L) | Alkaline Phosphatase (U/L) | Alanine Aminotransferase (U/L) | Aspartate Aminotransferase (U/L) | Bilirubin (umol/L) | Blood Urea Nitrogen (mmol/L) | Calcium (mmol/L) | Creatine Kinase (U/L) | Chloride (mmol/L) | Creatinine (umol/L) | Potassium (mmol/L) | Phosphate (mmol/L) | Protein (g/L) | Sodium (mmol/L) | Basophils (x10E9/L) | Basophils/Leukocytes (%) | Eosinophils (x10E9/L) | Eosinophils/Leukocytes (%) | Hematocrit (fraction) | Hemoglobin (g/L) | Lymphocytes (x10E9/L) | Lymphocytes/Leukocytes (%) | Monocytes (x10E9/L) | Monocytes/Leukocytes (%) | Neutrophils, Segmented (x10E9/L) | Neutrophils, Segmented/Leukocytes (%) | Platelets (x10E9/L) | Leukocytes (x10E9/L)",1 | 2 | 3 | 4 | 8 | 9 | 10 | 37 | 39 | 40 | 59 | 79 | 84 | 86 | 5 | 7 | 43 | 44 | 53 | 55 | 63 | 66 | 70 | 71 | 77 | 78 | 80 | 89,,,,,,,,33 | 35 | 6 | 11 | 3.42 | 1.428 | 2.0709 | 18 | 94 | 44.2 | 3.4 | 0.7104 | 61 | 132 | 0 | 0.39 | 127 | 0.91 | 15.4 | 0.12 | 2.6 | 1.96 | 40.5 | 140 | 3.8,49 | 131 | 43 | 36 | 20.52 | 8.568 | 2.6447 | 198 | 112 | 114.92 | 5.4 | 1.6468 | 84 | 147 | 0.2 | 2 | 0.57 | 6.8 | 0.54 | 181 | 4.28 | 48.5 | 0.92 | 10.1 | 7.23 | 75 | 400 | 10.7,Y,,,,,,Y,2014-03-19,2014-03-19 15:03:00,36,61,25,18,0.03,0.3,11.97,6.426,2.37025,,,,,,,,,,,,,,,,,,,,,,,,,,,124,108,97.24,,,0.03,0.4,,,,,0.45,,151,,4.1,,,2.07,24.6,0.37,4.4,,5.93,70.3,1.06557,360,73,144,,8.44,,,,,,,,,,,,,,,,,,,,,,,,,,,,,,,,,,,,,,,,,,,,,,,,,,,,,,,,,,,,,,,,,,,,,,,,,,,,,,,,,,,,,,,,,,,,,,,,,,,,,,,,,,,,,,,,,,,,,,,,,,,,,,,,,,,,,,,,,,,,,,,,,,,,,,,,,,,,,,,,,,,,,,,,,,,,,,,,,,,,,,,,,,,,,,,,,,,,,,,,,,,,,,,,,,,,,,,,,,,,,,,,,,,,,,,,,,,,,,,,,,,,,,54781532UCO2001,US00920,1.0,Y,2013-11-26T13:45,10000,SCREENING,1 | 14 | 26 | 38 | 50,Placebo,1.0,Diastolic Blood Pressure (mmHg) | Heart Rate (BEATS/MIN) | Respiratory Rate (BREATHS/MIN) | Systolic Blood Pressure (mmHg) | Weight (kg),4 | 1 | 2 | 3 | 5,88,,88,16,132,86.2,,,,,,,,,,,,,,,,,,,,,,,,,,,,,,,,,,,,,,,,,,,,,,,,,,,,,,,,,,,,,,,,,,,,,,,,,,
54781532UCO2001-001,BASELINE,29000,29000-BASELINE,,,,,,,,,,,,,,,,,,,,,,,,,,,,,,,,,,,,,,,,,,,,,,,,,,,,,,,,,,,,,,,,,,,,,,,,,,,,,,,,,,,,,,54781532UCO2001,1.0,US00920,57.0,YEARS,>= 40 years,2.0,M,USA,North America,1.0,WHITE,Caucasian,1.0,84.4,>= 75 kg,2.0,3.0,<= 5 years,1.0,LIMITED TO LEFT SIDE OF COLON,Present,11.0,>= 9,2.0,Severe,2.0,0.0,3.0,12.8,>= 3 mg/L,2.0,N,Y,N,Y,Y,Y,Y,Y,N,Y,N,Placebo,1.0,27 | 29 | 6 | 5 | 19 | 20 | 22 | 21 | 23 | 28 | 17 | 24 | 25 | 26 | 16 | 18 | 14 | 15 | 10 | 11 | 12 | 13 | 9,Calprotectin Score | CRP Score | Endoscopy Central Reading | Endoscopy Local Reading | IBDQ Bowel Dimension | IBDQ Emotional Dimension | IBDQ Social Dimension | IBDQ Systemic Dimension | IBDQ Total | Lactoferrin Score | Mayo Score | Sensitivity Analysis 3 | Sensitivity Analysis 4 | Partial Mayo Clinical Remission | Physicians Global Assessment | Partial Mayo Score | Rectal Bleeding | Worse Rectal Bleeding | Evaluator 1 | Evaluator 2 | Evaluator 3 | Stool Frequency | UCEIS Score,31 | 33 | 6 | 5 | 9 | 10 | 12 | 11 | 13 | 32 | 7 | 15 | 16 | 22 | 4 | 8 | 2 | 3 | 28 | 29 | 30 | 1 | 24,, | Derived,Y,Y,557.93 | 12.8 | 3 | 40 | 64 | 23 | 14 | 141 | 1e+06 | 11 | 8 | 2 | 9,,2014-01-21 | 2014-01-15,1 | -6,Y,2014-03-19,Y,Y,N,N,557.93,12.8,3,3.0,40,64,23,14,141,1000000,11,11,8,N,3.0,8,2.0,2.0,3,3,3,3.0,9,,,,,,,,,,,,,54781532UCO2001,1.0,Y,N,Placebo to JNJ-54781532 150 mg QD,6.0,Placebo,1.0,1.0,1.0,Interpretation,2013-12-04T14:57,-48.0,10000.0,SCREENING,Y,Y,Y,ABNORMAL,,,,,,,,,,,,,54781532UCO2001,1.0,Y,N,Placebo to JNJ-54781532 150 mg QD,6.0,Placebo,1.0,2 | 14 | 26 | 38 | 50 | 62 | 74 | 85 | 89 | 93 | 94 | 99 | 111 | 123 | 134 | 135 | 145 | 150 | 161 | 165 | 169 | 174 | 186 | 198 | 209 | 214 | 226 | 238 | 250 | 262 | 274 | 286 | 298 | 310 | 322 | 334 | 346 | 358 | 370 | 381 | 384 | 387 | 390 | 393 | 396 | 399 | 402 | 405 | 408 | 411 | 414 | 417 | 420 | 423 | 426 | 429 | 432 | 435 | 438 | 441 | 444 | 447 | 450 | 453 | 456 | 459 | 462 | 465 | 466 | 467 | 468 | 469 | 470,CHEMISTRY | HEMATOLOGY | IMMUNOLOGY,33 | 35 | 6 | 11 | 3.42 | 1.428 | 2.07085 | 4.3962 | 18 | 94 | 44.2 | 1.41695 | 0.72408 | 3.4 | 2.27568 | 0 | 0.71038 | 61 | 132 | 0.65482 | 0.39 | 127 | 0.91 | 15.4 | 0.12 | 2.6 | 1.96 | 40.5 | 140 | 3.8 | 0.084 | 5 | 0.08 | 0.723 | 56 | 0.404 | 0.22 | 13,49 | 131 | 43 | 36 | 20.52 | 8.568 | 2.6447 | 50 | 7.52526 | 198 | 112 | 114.92 | 2.08375 | 2.87 | 1.83606 | 5.4 | 5.24958 | 7.24 | 1.64679 | 84 | 147 | 3.6128 | 0.2 | 2 | 0.57 | 6.8 | 0.54 | 181 | 4.28 | 48.5 | 0.92 | 10.1 | 7.23 | 75 | 400 | 10.7 | 0.724 | 26 | 0.616 | 22 | 2.737 | 86 | 1.612 | 58 | 1.129 | 39, | NEGATIVE | NON-REACTIVE,NORMAL | HIGH |  | ABNORMAL,,,Y | ,30000 | 10000.01 | 10000,WEEK 0 | SCREENING UNSCHEDULED 1 | SCREENING,2014-01-21T13:45 | 2014-01-15T15:05 | 2013-12-04T13:55,1 | -6 | -48,SERUM |  | STOOL | BLOOD, | ASSAY YIELDING BY MASS RESULTS | ASSAY YIELDING BY VOLUME RESULTS | HIGH SENSITIVITY ASSAY | CALCULATED | FLOW CYTOMETRY | QUANTIFERON TB,ROOM TEMPERATURE | FROZEN,Y | ,"SERUM Albumin (g/L) | Alkaline Phosphatase (U/L) | Alanine Aminotransferase (U/L) | Aspartate Aminotransferase (U/L) | Bilirubin (umol/L) | Blood Urea Nitrogen (mmol/L) | Calcium (mmol/L) | STOOL Calprotectin (ug/g) | STOOL Calprotectin (ug/L) | STOOL Clostridium difficile Toxin | Cholesterol (mmol/L) | Creatine Kinase (U/L) | Chloride (mmol/L) | Creatinine (umol/L) | Creatinine Clearance (mL/s) | C Reactive Protein (mg/L) | HDL Cholesterol (mmol/L) | Potassium (mmol/L) | LDL Cholesterol (mmol/L) | STOOL Lactoferrin (ug/g) | STOOL Lactoferrin (ug/L) | Phosphate (mmol/L) | Protein (g/L) | Sodium (mmol/L) | Triglycerides (mmol/L) | Basophils (x10E9/L) | Basophils/Leukocytes (%) | Eosinophils (x10E9/L) | Eosinophils/Leukocytes (%) | Hematocrit (fraction) | Hemoglobin (g/L) | Lymphocytes (x10E9/L) | Lymphocytes/Leukocytes (%) | Monocytes (x10E9/L) | Monocytes/Leukocytes (%) | Neutrophils, Segmented (x10E9/L) | Neutrophils, Segmented/Leukocytes (%) | Platelets (x10E9/L) | Leukocytes (x10E9/L) | CD16 CD56 (x10E9/L) | CD16 CD56/Lymphocytes (%) | CD19 (x10E9/L) | CD19/Lymphocytes (%) | CD3 (x10E9/L) | CD3/Lymphocytes (%) | CD4 (x10E9/L) | BLOOD CD4 Central Memory T Cells (x10E6/L) | BLOOD CD4 Central Memory T Cells/Total Cells (%) | BLOOD CD4 Effector Memory T Cells (x10E6/L) | BLOOD CD4 Effector Memory T Cells/Total Cells (%) | CD4/Lymphocytes (%) | BLOOD CD4 Naive T Cells (x10E6/L) | BLOOD CD4 Naive T Cells/Total Cells (%) | CD4 Type 1 Helper T Cells/CD4 (%) | CD4 Type 1 Helper T Cells (x10E6/L) | BLOOD CD4 Regulatory T Cells/CD4 (%) | BLOOD CD4 Regulatory T Cells (x10E6/L) | CD8 (x10E9/L) | BLOOD CD8 Central Memory T Cells (x10E6/L) | BLOOD CD8 Central Memory T Cells/Total Cells (%) | BLOOD CD8 Effector Memory T Cells (x10E6/L) | BLOOD CD8 Effector Memory T Cells/Total Cells (%) | CD8/Lymphocytes (%) | BLOOD CD8 Naive T Cells (x10E6/L) | BLOOD CD8 Naive T Cells/Total Cells (%) | BLOOD CD8 Term Diff Eff Mem Cells (x10E6/L) | BLOOD CD8 Term Diff Eff Mem Cells/Total Cells (%) | SERUM Hepatitis B Virus Core Antibody | Hepatitis B Virus Surface Antibody | Hepatitis B Virus Surface Antigen | Hepatitis C Virus Antibody | HIV-1/2 Antibody | M. tuberculosis IFN Gamma Response",1 | 2 | 3 | 4 | 8 | 9 | 10 | 11 | 35 | 36 | 37 | 39 | 40 | 41 | 42 | 54 | 59 | 60 | 62 | 79 | 84 | 86 | 87 | 5 | 7 | 43 | 44 | 53 | 55 | 63 | 66 | 70 | 71 | 77 | 78 | 80 | 89 | 12 | 13 | 14 | 15 | 16 | 17 | 18 | 19 | 20 | 21 | 22 | 23 | 24 | 25 | 26 | 27 | 28 | 29 | 30 | 31 | 32 | 33 | 34 | 47 | 48 | 49 | 51 | 56 | 74,35 | 68 | 20 | 14 | 10.26 | 4.998 | 2.42015 | 223.17 | 5.12028 | 101 | 105 | 79.56 | 1.45029 | 12.8 | 1.08612 | 3.9 | 2.92218 | 1.16244 | 74 | 141 | 2.40477 | 0.06 | 0.6 | 0.08 | 0.9 | 0.43 | 146 | 1.65 | 17.5 | 4.6 | 7.21 | 76.4 | 333 | 9.45 | 0.378 | 17.6 | 0.157 | 7.3 | 1.585 | 73.7 | 1.22 | 513.38 | 42.08 | 218.26 | 17.89 | 56.7 | 486.54 | 39.88 | 28.66 | 349.65 | 2.7 | 32.94 | 0.306 | 28.64 | 9.36 | 174.57 | 57.05 | 14.2 | 70.32 | 22.98 | 32.44 | 10.6,,,,, | NORMAL, | NORMAL,33 | 35 | 6 | 11 | 3.42 | 1.428 | 2.0709 | 4.3962 | 18 | 94 | 44.2 | 1.417 | 0.7241 | 3.4 | 2.2757 | 0 | 0.7104 | 61 | 132 | 0.6548 | 0.39 | 127 | 0.91 | 15.4 | 0.12 | 2.6 | 1.96 | 40.5 | 140 | 3.8 | 0.084 | 5 | 0.08 | 0.723 | 56 | 0.404 | 0.22 | 13,49 | 131 | 43 | 36 | 20.52 | 8.568 | 2.6447 | 50 | 7.5253 | 198 | 112 | 114.92 | 2.0838 | 2.87 | 1.8361 | 5.4 | 5.2496 | 7.24 | 1.6468 | 84 | 147 | 3.6128 | 0.2 | 2 | 0.57 | 6.8 | 0.54 | 181 | 4.28 | 48.5 | 0.92 | 10.1 | 7.23 | 75 | 400 | 10.7 | 0.724 | 26 | 0.616 | 22 | 2.737 | 86 | 1.612 | 58 | 1.129 | 39,Y,,,,,Y,Y,2014-03-19,2014-03-19 15:03:00,35,68,20,14,0.06,0.6,10.26,4.998,2.42015,557.93 | 223.17,0.378,17.6,0.157,7.3,1.585,73.7,1.22,513.38 | 42.08,218.26 | 17.89,56.7,486.54,39.88,28.66,349.65,2.7,32.94,0.306,28.64 | 9.36,174.57 | 57.05,14.2,70.32,22.98,32.44 | 10.6,NEGATIVE,5.12028,101,105,79.56,1.45029,12.8,0.08,0.9,NEGATIVE,POSITIVE,NEGATIVE,NEGATIVE,0.43,1.08612,146,NON-REACTIVE,3.9,2.92218,>800 | >800000,1.65,17.5,0.43,4.6,NEGATIVE,7.21,76.4,1.16244,333,74,141,2.40477,9.45,,,,,,,,,,,,,,,,,,,,,,,,,,,,,,,,,,,,,,,,,,,,,,,,,,,,,,,,,,,,,,,,,,,,,,,,,,,,,,,,,,,,,,,,,,,,,,,,,,,,,,,,,,,,,,,,,,,,,,,,,,,,,,,,,,,,,,,,,,,,,,,,,,,,,,,,,,,,,,,,,,,,,,,,,,,,,,,,,,,,,,,,,,,,,,,,,,,,,,,,,,,,,,,,,,,,,,,,,,,,,,,,,,,,,,,,,,,,,,,,,,,,,,54781532UCO2001,US00920,1.0,Y,2014-01-21T13:38 | 2013-11-26T13:45,30000 | 10000,WEEK 0 | SCREENING,2 | 13 | 15 | 27 | 39 | 51,Placebo,1.0,Diastolic Blood Pressure (mmHg) | Height (cm) | Heart Rate (BEATS/MIN) | Respiratory Rate (BREATHS/MIN) | Systolic Blood Pressure (mmHg) | Weight (kg),4 | 6 | 1 | 2 | 3 | 5,96,167.6,86,16,128,84.4,,,,,,,,,,,,,,,,,,,,,,,,,,,,,,,,,,,,,,,,,,,,,,,,,,,,,,,,,,,,,,,,,,,,,,,,,,
54781532UCO2001-001,WEEK 2,30002,30002-WEEK 2,,,,,,,,,,,,,,,,,,,,,,,,,,,,,,,,,,,,,,,,,,,,,,,,,,,,,,,,,,,,,,,,,,,,,,,,,,,,,,,,,,,,,,54781532UCO2001,1.0,US00920,57.0,YEARS,>= 40 years,2.0,M,USA,North America,1.0,WHITE,Caucasian,1.0,84.4,>= 75 kg,2.0,3.0,<= 5 years,1.0,LIMITED TO LEFT SIDE OF COLON,Present,11.0,>= 9,2.0,Severe,2.0,0.0,3.0,12.8,>= 3 mg/L,2.0,N,Y,N,Y,Y,Y,Y,Y,N,Y,N,Placebo,1.0,37 | 35 | 36 | 33 | 34 | 31 | 32 | 30,CRP Score | Partial Mayo Clinical Remission | Partial Mayo Clinical Response | Physicians Global Assessment | Partial Mayo Score | Rectal Bleeding | Worse Rectal Bleeding | Stool Frequency,33 | 22 | 29 | 4 | 8 | 2 | 3 | 1,, | Derived,,Y,12.8 | 3 | 8 | 2,-4.54 | 0 | -1,2014-02-04 00:00:00,15,Y,2014-03-19,Y,Y,N,N,,8.26,,,,,,,,,,,,N,3.0,7,1.0,1.0,,,,3.0,,N,,,,,,,,,,,,,,,,,,,,,,,,,,,,,,,,,,,,,,,,,,,54781532UCO2001,1.0,Y,N,Placebo to JNJ-54781532 150 mg QD,6.0,Placebo,1.0,3 | 15 | 27 | 39 | 51 | 63 | 75 | 100 | 112 | 124 | 136 | 151 | 175 | 187 | 199 | 215 | 227 | 239 | 251 | 263 | 275 | 287 | 299 | 311 | 323 | 335 | 347 | 359 | 371,CHEMISTRY | HEMATOLOGY,33 | 35 | 6 | 11 | 3.42 | 1.428 | 2.07085 | 18 | 94 | 44.2 | 3.4 | 0.71038 | 61 | 132 | 0 | 0.39 | 127 | 0.91 | 15.4 | 0.12 | 2.6 | 1.96 | 40.5 | 140 | 3.8,49 | 131 | 43 | 36 | 20.52 | 8.568 | 2.6447 | 198 | 112 | 114.92 | 2.87 | 5.4 | 1.64679 | 84 | 147 | 0.2 | 2 | 0.57 | 6.8 | 0.54 | 181 | 4.28 | 48.5 | 0.92 | 10.1 | 7.23 | 75 | 400 | 10.7,,NORMAL | HIGH,,,,30002,WEEK 2,2014-02-04T13:30,15,SERUM | , | HIGH SENSITIVITY ASSAY,ROOM TEMPERATURE,,"SERUM Albumin (g/L) | Alkaline Phosphatase (U/L) | Alanine Aminotransferase (U/L) | Aspartate Aminotransferase (U/L) | Bilirubin (umol/L) | Blood Urea Nitrogen (mmol/L) | Calcium (mmol/L) | Creatine Kinase (U/L) | Chloride (mmol/L) | Creatinine (umol/L) | C Reactive Protein (mg/L) | Potassium (mmol/L) | Phosphate (mmol/L) | Protein (g/L) | Sodium (mmol/L) | Basophils (x10E9/L) | Basophils/Leukocytes (%) | Eosinophils (x10E9/L) | Eosinophils/Leukocytes (%) | Hematocrit (fraction) | Hemoglobin (g/L) | Lymphocytes (x10E9/L) | Lymphocytes/Leukocytes (%) | Monocytes (x10E9/L) | Monocytes/Leukocytes (%) | Neutrophils, Segmented (x10E9/L) | Neutrophils, Segmented/Leukocytes (%) | Platelets (x10E9/L) | Leukocytes (x10E9/L)",1 | 2 | 3 | 4 | 8 | 9 | 10 | 37 | 39 | 40 | 42 | 59 | 79 | 84 | 86 | 5 | 7 | 43 | 44 | 53 | 55 | 63 | 66 | 70 | 71 | 77 | 78 | 80 | 89,35 | 68 | 20 | 14 | 10.26 | 4.998 | 2.42015 | 101 | 105 | 79.56 | 12.8 | 3.9 | 1.16244 | 74 | 141 | 0.06 | 0.6 | 0.08 | 0.9 | 0.43 | 146 | 1.65 | 17.5 | 4.6 | 7.21 | 76.4 | 333 | 9.45,2 | -4 | 3 | 5 | -1.71 | 1.071 | -0.0499000000000001 | 16 | 8.84 | -4.54 | 0 | -0.0322900000000002 | -2 | -0.01 | -0.2 | 0.01 | -0.0999999999999999 | -2.1 | -0.05 | -0.899999999999999 | 0.8 | 3.19999999999999 | 0.620000000000001,5.71428571428571 | -5.88235294117647 | 15 | 35.7142857142857 | -16.6666666666667 | 21.4285714285714 | -2.0618556701031 | 15.8415841584158 | 1.9047619047619 | 11.1111111111111 | -35.46875 | 0 | -2.77777777777779 | -2.7027027027027 | 1.41843971631206 | -12.5 | -22.2222222222222 | 2.32558139534884 | 1.36986301369863 | -6.06060606060605 | -12 | -11.6279069767442 | -19.5652173913043 | 11.0957004160888 | 4.18848167539266 | 6.56084656084657,,,,,33 | 35 | 6 | 11 | 3.42 | 1.428 | 2.0709 | 18 | 94 | 44.2 | 3.4 | 0.7104 | 61 | 132 | 0 | 0.39 | 127 | 0.91 | 15.4 | 0.12 | 2.6 | 1.96 | 40.5 | 140 | 3.8,49 | 131 | 43 | 36 | 20.52 | 8.568 | 2.6447 | 198 | 112 | 114.92 | 2.87 | 5.4 | 1.6468 | 84 | 147 | 0.2 | 2 | 0.57 | 6.8 | 0.54 | 181 | 4.28 | 48.5 | 0.92 | 10.1 | 7.23 | 75 | 400 | 10.7,Y,,,,Y,,Y,2014-03-19,2014-03-19 15:03:00,37,64,23,19,0.06,0.6,8.55,6.069,2.37025,,,,,,,,,,,,,,,,,,,,,,,,,,,117,107,88.4,,8.26,0.07,0.7,,,,,0.44,,148,,3.9,,,1.55,15.4,0.38,3.7,,8.01,79.6,1.13015,333,72,143,,10.07,,,,,,,,,,,,,,,,,,,,,,,,,,,,,,,,,,,,,,,,,,,,,,,,,,,,,,,,,,,,,,,,,,,,,,,,,,,,,,,,,,,,,,,,,,,,,,,,,,,,,,,,,,,,,,,,,,,,,,,,,,,,,,,,,,,,,,,,,,,,,,,,,,,,,,,,,,,,,,,,,,,,,,,,,,,,,,,,,,,,,,,,,,,,,,,,,,,,,,,,,,,,,,,,,,,,,,,,,,,,,,,,,,,,,,,,,,,,,,,,,,,,,,54781532UCO2001,US00920,1.0,Y,2014-02-04T13:35,30002,WEEK 2,3 | 16 | 28 | 40,Placebo,1.0,Diastolic Blood Pressure (mmHg) | Heart Rate (BEATS/MIN) | Respiratory Rate (BREATHS/MIN) | Systolic Blood Pressure (mmHg),4 | 1 | 2 | 3,84,,74,18,130,,,,,,,,,,,,,,,,,,,,,,,,,,,,,,,,,,,,,,,,,,,,,,,,,,,,,,,,,,,,,,,,,,,,,,,,,,,
54781532UCO2001-001,WEEK 4,30004,30004-WEEK 4,,,,,,,,,,,,,,,,,,,,,,,,,,,,,,,,,,,,,,,,,,,,,,,,,,,,,,,,,,,,,,,,,,,,,,,,,,,,,,,,,,,,,,54781532UCO2001,1.0,US00920,57.0,YEARS,>= 40 years,2.0,M,USA,North America,1.0,WHITE,Caucasian,1.0,84.4,>= 75 kg,2.0,3.0,<= 5 years,1.0,LIMITED TO LEFT SIDE OF COLON,Present,11.0,>= 9,2.0,Severe,2.0,0.0,3.0,12.8,>= 3 mg/L,2.0,N,Y,N,Y,Y,Y,Y,Y,N,Y,N,Placebo,1.0,45 | 43 | 44 | 41 | 42 | 39 | 40 | 38,CRP Score | Partial Mayo Clinical Remission | Partial Mayo Clinical Response | Physicians Global Assessment | Partial Mayo Score | Rectal Bleeding | Worse Rectal Bleeding | Stool Frequency,33 | 22 | 29 | 4 | 8 | 2 | 3 | 1,, | Derived,,Y,12.8 | 3 | 8 | 2,-11.56 | 0 | -1,2014-02-18 00:00:00,29,Y,2014-03-19,Y,Y,N,N,,1.24,,,,,,,,,,,,N,3.0,7,1.0,1.0,,,,3.0,,N,,,,,,,,,,,,,,,,,,,,,,,,,,,,,,,,,,,,,,,,,,,54781532UCO2001,1.0,Y,N,Placebo to JNJ-54781532 150 mg QD,6.0,Placebo,1.0,4 | 16 | 28 | 40 | 52 | 64 | 76 | 101 | 113 | 125 | 137 | 152 | 176 | 188 | 200 | 216 | 228 | 240 | 252 | 264 | 276 | 288 | 300 | 312 | 324 | 336 | 348 | 360 | 372,CHEMISTRY | HEMATOLOGY,33 | 35 | 6 | 11 | 3.42 | 1.428 | 2.07085 | 18 | 94 | 44.2 | 3.4 | 0.71038 | 61 | 132 | 0 | 0.39 | 127 | 0.91 | 15.4 | 0.12 | 2.6 | 1.96 | 40.5 | 140 | 3.8,49 | 131 | 43 | 36 | 20.52 | 8.568 | 2.6447 | 198 | 112 | 114.92 | 2.87 | 5.4 | 1.64679 | 84 | 147 | 0.2 | 2 | 0.57 | 6.8 | 0.54 | 181 | 4.28 | 48.5 | 0.92 | 10.1 | 7.23 | 75 | 400 | 10.7,,NORMAL | LOW | HIGH,,,,30004,WEEK 4,2014-02-18T14:04,29,SERUM | , | HIGH SENSITIVITY ASSAY,ROOM TEMPERATURE,,"SERUM Albumin (g/L) | Alkaline Phosphatase (U/L) | Alanine Aminotransferase (U/L) | Aspartate Aminotransferase (U/L) | Bilirubin (umol/L) | Blood Urea Nitrogen (mmol/L) | Calcium (mmol/L) | Creatine Kinase (U/L) | Chloride (mmol/L) | Creatinine (umol/L) | C Reactive Protein (mg/L) | Potassium (mmol/L) | Phosphate (mmol/L) | Protein (g/L) | Sodium (mmol/L) | Basophils (x10E9/L) | Basophils/Leukocytes (%) | Eosinophils (x10E9/L) | Eosinophils/Leukocytes (%) | Hematocrit (fraction) | Hemoglobin (g/L) | Lymphocytes (x10E9/L) | Lymphocytes/Leukocytes (%) | Monocytes (x10E9/L) | Monocytes/Leukocytes (%) | Neutrophils, Segmented (x10E9/L) | Neutrophils, Segmented/Leukocytes (%) | Platelets (x10E9/L) | Leukocytes (x10E9/L)",1 | 2 | 3 | 4 | 8 | 9 | 10 | 37 | 39 | 40 | 42 | 59 | 79 | 84 | 86 | 5 | 7 | 43 | 44 | 53 | 55 | 63 | 66 | 70 | 71 | 77 | 78 | 80 | 89,35 | 68 | 20 | 14 | 10.26 | 4.998 | 2.42015 | 101 | 105 | 79.56 | 12.8 | 3.9 | 1.16244 | 74 | 141 | 0.06 | 0.6 | 0.08 | 0.9 | 0.43 | 146 | 1.65 | 17.5 | 4.6 | 7.21 | 76.4 | 333 | 9.45,0 | 8 | 10 | -1.71 | 3.213 | 0.0499000000000001 | -7 | -1 | 26.52 | -11.56 | 0.5 | -0.0968700000000002 | 2 | 3 | -0.03 | -0.3 | -0.5 | 0.03 | 9 | -6.3 | -0.23 | -2.9 | 3.21 | 24 | 2.6,0 | 11.7647058823529 | 50 | 71.4285714285714 | -16.6666666666667 | 64.2857142857143 | 2.0618556701031 | -6.93069306930693 | -0.952380952380952 | 33.3333333333333 | -90.3125 | 12.8205128205128 | -8.33333333333335 | 2.7027027027027 | 2.12765957446809 | -50 | -37.5 | -55.5555555555556 | 6.97674418604652 | 6.16438356164384 | -18.1818181818182 | -36 | -53.4883720930233 | -63.0434782608696 | 44.5214979195562 | 13.0890052356021 | 7.20720720720721 | 27.5132275132275,,,,,33 | 35 | 6 | 11 | 3.42 | 1.428 | 2.0709 | 18 | 94 | 44.2 | 3.4 | 0.7104 | 61 | 132 | 0 | 0.39 | 127 | 0.91 | 15.4 | 0.12 | 2.6 | 1.96 | 40.5 | 140 | 3.8,49 | 131 | 43 | 36 | 20.52 | 8.568 | 2.6447 | 198 | 112 | 114.92 | 2.87 | 5.4 | 1.6468 | 84 | 147 | 0.2 | 2 | 0.57 | 6.8 | 0.54 | 181 | 4.28 | 48.5 | 0.92 | 10.1 | 7.23 | 75 | 400 | 10.7,Y,,,,Y,,Y,2014-03-19,2014-03-19 15:03:00,35,76,30,24,0.03,0.3,8.55,8.211,2.47005,,,,,,,,,,,,,,,,,,,,,,,,,,,94,104,106.08,,1.24,0.05,0.4,,,,,0.46,,155,,4.4,,,1.35,11.2,0.2,1.7,,10.42,86.4,1.06557,357,76,144,,12.05,,,,,,,,,,,,,,,,,,,,,,,,,,,,,,,,,,,,,,,,,,,,,,,,,,,,,,,,,,,,,,,,,,,,,,,,,,,,,,,,,,,,,,,,,,,,,,,,,,,,,,,,,,,,,,,,,,,,,,,,,,,,,,,,,,,,,,,,,,,,,,,,,,,,,,,,,,,,,,,,,,,,,,,,,,,,,,,,,,,,,,,,,,,,,,,,,,,,,,,,,,,,,,,,,,,,,,,,,,,,,,,,,,,,,,,,,,,,,,,,,,,,,,54781532UCO2001,US00920,1.0,Y,2014-02-18T13:55,30004,WEEK 4,4 | 17 | 29 | 41,Placebo,1.0,Diastolic Blood Pressure (mmHg) | Heart Rate (BEATS/MIN) | Respiratory Rate (BREATHS/MIN) | Systolic Blood Pressure (mmHg),4 | 1 | 2 | 3,82,,92,18,128,,,,,,,,,,,,,,,,,,,,,,,,,,,,,,,,,,,,,,,,,,,,,,,,,,,,,,,,,,,,,,,,,,,,,,,,,,,
54781532UCO2001-001,WEEK 8,30008,30008-WEEK 8,,,,,,,,,,,,,,,,,,,,,,,,,,,,,,,,,,,,,,,,,,,,,,,,,,,,,,,,,,,,,,,,,,,,,,,,,,,,,,,,,,,,,,54781532UCO2001,1.0,US00920,57.0,YEARS,>= 40 years,2.0,M,USA,North America,1.0,WHITE,Caucasian,1.0,84.4,>= 75 kg,2.0,3.0,<= 5 years,1.0,LIMITED TO LEFT SIDE OF COLON,Present,11.0,>= 9,2.0,Severe,2.0,0.0,3.0,12.8,>= 3 mg/L,2.0,N,Y,N,Y,Y,Y,Y,Y,N,Y,N,Placebo,1.0,73 | 65 | 66 | 63 | 64 | 76 | 75 | 51 | 50 | 54 | 55 | 57 | 56 | 58 | 74 | 52 | 59 | 69 | 70 | 60 | 61 | 62 | 67 | 71 | 49 | 53 | 47 | 48 | 72 | 46 | 68,Calprotectin Score | Clinical Remission | Clinical Remission by Local Reader | Clinical Response | Clinical Response by Local Reader | Clinical Remission with Local Reader | CRP Score | Endoscopy Central Reading | Endoscopy Local Reading | IBDQ Bowel Dimension | IBDQ Emotional Dimension | IBDQ Social Dimension | IBDQ Systemic Dimension | IBDQ Total | Lactoferrin Score | Mayo Score | Number of Missing Subscores | Mucosal Healing | Mucosal Healing by Local Reader | Sensitivity Analysis 1 | Sensitivity Analysis 3 | Sensitivity Analysis 4 | Partial Mayo Clinical Remission | Partial Mayo Clinical Response | Physicians Global Assessment | Partial Mayo Score | Rectal Bleeding | Worse Rectal Bleeding | Evaluator 2 | Stool Frequency | UCEIS Score,31 | 20 | 21 | 17 | 18 | 34 | 33 | 6 | 5 | 9 | 10 | 12 | 11 | 13 | 32 | 7 | 26 | 27 | 14 | 15 | 16 | 22 | 29 | 4 | 8 | 2 | 3 | 1 | 24, | IBDQ Improvement, | Derived,,Y,557.93 | 12.8 | 3 | 40 | 64 | 23 | 14 | 141 | 1e+06 | 11 | 8 | 2 | 9,-144.6 | -5.55 | 0 | 14 | 7 | 2 | 5 | 28 | -964395 | -3 | -2 | -1,2014-03-19 00:00:00,58,Y | ,2014-03-19,Y,Y,N,N,413.33,7.25,3,3.0,54,71,25,19,169,35605,8,8,6,N,2.0,5,0.0,0.0,,3,,3.0,9,Y,N,N,N,N,N,0.0,N,N,8,,,54781532UCO2001,1.0,Y,N,Placebo to JNJ-54781532 150 mg QD,6.0,Placebo,1.0,2.0,1.0,Interpretation,2014-03-19T14:30,58.0,30008.0,WEEK 8,,,Y,NORMAL,,,,,,,,,,,,,54781532UCO2001,1.0,Y,N,Placebo to JNJ-54781532 150 mg QD,6.0,Placebo,1.0,5 | 17 | 29 | 41 | 53 | 65 | 77 | 86 | 90 | 95 | 102 | 114 | 126 | 138 | 146 | 153 | 162 | 166 | 170 | 177 | 189 | 201 | 210 | 217 | 229 | 241 | 253 | 265 | 277 | 289 | 301 | 313 | 325 | 337 | 349 | 361 | 373 | 382 | 385 | 388 | 391 | 394 | 397 | 400 | 403 | 406 | 409 | 412 | 415 | 418 | 421 | 424 | 427 | 430 | 433 | 436 | 439 | 442 | 445 | 448 | 451 | 454 | 457 | 460 | 463,CHEMISTRY | HEMATOLOGY | IMMUNOLOGY,33 | 35 | 6 | 11 | 3.42 | 1.428 | 2.07085 | 4.3962 | 18 | 94 | 44.2 | 0.72408 | 3.4 | 2.27568 | 0 | 0.71038 | 61 | 132 | 0.65482 | 0.39 | 127 | 0.91 | 15.4 | 0.12 | 2.6 | 1.96 | 40.5 | 140 | 3.8 | 0.084 | 5 | 0.08 | 0.723 | 56 | 0.404 | 0.22 | 13,49 | 131 | 43 | 36 | 20.52 | 8.568 | 2.6447 | 50 | 7.52526 | 198 | 112 | 114.92 | 2.87 | 1.83606 | 5.4 | 5.24958 | 7.24 | 1.64679 | 84 | 147 | 3.6128 | 0.2 | 2 | 0.57 | 6.8 | 0.54 | 181 | 4.28 | 48.5 | 0.92 | 10.1 | 7.23 | 75 | 400 | 10.7 | 0.724 | 26 | 0.616 | 22 | 2.737 | 86 | 1.612 | 58 | 1.129 | 39,,NORMAL | HIGH | ,,,,30008,WEEK 8,2014-03-19T13:42,58,SERUM |  | STOOL | BLOOD, | ASSAY YIELDING BY MASS RESULTS | ASSAY YIELDING BY VOLUME RESULTS | HIGH SENSITIVITY ASSAY | CALCULATED | FLOW CYTOMETRY,ROOM TEMPERATURE | FROZEN,Y,"SERUM Albumin (g/L) | Alkaline Phosphatase (U/L) | Alanine Aminotransferase (U/L) | Aspartate Aminotransferase (U/L) | Bilirubin (umol/L) | Blood Urea Nitrogen (mmol/L) | Calcium (mmol/L) | STOOL Calprotectin (ug/g) | STOOL Calprotectin (ug/L) | Cholesterol (mmol/L) | Creatine Kinase (U/L) | Chloride (mmol/L) | Creatinine (umol/L) | C Reactive Protein (mg/L) | HDL Cholesterol (mmol/L) | Potassium (mmol/L) | LDL Cholesterol (mmol/L) | STOOL Lactoferrin (ug/g) | STOOL Lactoferrin (ug/L) | Phosphate (mmol/L) | Protein (g/L) | Sodium (mmol/L) | Triglycerides (mmol/L) | Basophils (x10E9/L) | Basophils/Leukocytes (%) | Eosinophils (x10E9/L) | Eosinophils/Leukocytes (%) | Hematocrit (fraction) | Hemoglobin (g/L) | Lymphocytes (x10E9/L) | Lymphocytes/Leukocytes (%) | Monocytes (x10E9/L) | Monocytes/Leukocytes (%) | Neutrophils, Segmented (x10E9/L) | Neutrophils, Segmented/Leukocytes (%) | Platelets (x10E9/L) | Leukocytes (x10E9/L) | CD16 CD56 (x10E9/L) | CD16 CD56/Lymphocytes (%) | CD19 (x10E9/L) | CD19/Lymphocytes (%) | CD3 (x10E9/L) | CD3/Lymphocytes (%) | CD4 (x10E9/L) | BLOOD CD4 Central Memory T Cells (x10E6/L) | BLOOD CD4 Central Memory T Cells/Total Cells (%) | BLOOD CD4 Effector Memory T Cells (x10E6/L) | BLOOD CD4 Effector Memory T Cells/Total Cells (%) | CD4/Lymphocytes (%) | BLOOD CD4 Naive T Cells (x10E6/L) | BLOOD CD4 Naive T Cells/Total Cells (%) | CD4 Type 1 Helper T Cells/CD4 (%) | CD4 Type 1 Helper T Cells (x10E6/L) | BLOOD CD4 Regulatory T Cells/CD4 (%) | BLOOD CD4 Regulatory T Cells (x10E6/L) | CD8 (x10E9/L) | BLOOD CD8 Central Memory T Cells (x10E6/L) | BLOOD CD8 Central Memory T Cells/Total Cells (%) | BLOOD CD8 Effector Memory T Cells (x10E6/L) | BLOOD CD8 Effector Memory T Cells/Total Cells (%) | CD8/Lymphocytes (%) | BLOOD CD8 Naive T Cells (x10E6/L) | BLOOD CD8 Naive T Cells/Total Cells (%) | BLOOD CD8 Term Diff Eff Mem Cells (x10E6/L) | BLOOD CD8 Term Diff Eff Mem Cells/Total Cells (%)",1 | 2 | 3 | 4 | 8 | 9 | 10 | 11 | 36 | 37 | 39 | 40 | 42 | 54 | 59 | 60 | 62 | 79 | 84 | 86 | 87 | 5 | 7 | 43 | 44 | 53 | 55 | 63 | 66 | 70 | 71 | 77 | 78 | 80 | 89 | 12 | 13 | 14 | 15 | 16 | 17 | 18 | 19 | 20 | 21 | 22 | 23 | 24 | 25 | 26 | 27 | 28 | 29 | 30 | 31 | 32 | 33 | 34,35 | 68 | 20 | 14 | 10.26 | 4.998 | 2.42015 | 223.17 | 5.12028 | 101 | 105 | 79.56 | 12.8 | 1.08612 | 3.9 | 2.92218 | 1.16244 | 74 | 141 | 2.40477 | 0.06 | 0.6 | 0.08 | 0.9 | 0.43 | 146 | 1.65 | 17.5 | 4.6 | 7.21 | 76.4 | 333 | 9.45 | 0.378 | 17.6 | 0.157 | 7.3 | 1.585 | 73.7 | 1.22 | 513.38 | 42.08 | 218.26 | 17.89 | 56.7 | 486.54 | 39.88 | 28.66 | 349.65 | 2.7 | 32.94 | 0.306 | 28.64 | 9.36 | 174.57 | 57.05 | 14.2 | 70.32 | 22.98 | 32.44 | 10.6,3 | 10 | 6 | 2 | 3.42 | 0.714 | -0.02495 | 190.16 | -57.84 | 1.31886 | -14 | 1 | 8.84 | -5.55 | 0.1293 | -0.3 | 0.98268 | -0.29061 | 4 | 0.48547 | -0.02 | -0.1 | -0.2 | 0.05 | 8 | 1.08 | 16.8 | 0.02 | -2.53 | -17.6 | -5 | -1.5 | 0.015 | -2.7 | 0.00900000000000001 | -1 | 0.454 | 3.59999999999999 | 0.397 | 241.92 | 4.63 | 2.62 | -4.23 | 4.59999999999999 | 152.34 | -0.370000000000005 | 0.0500000000000007 | 114.59 | 1.01 | 27.05 | 0.085 | 14.6 | 1.7 | 13.97 | -8.83 | 0.600000000000001 | 44.83 | 6.47 | 11.63 | 0.67,8.57142857142857 | 14.7058823529412 | 30 | 14.2857142857143 | 33.3333333333333 | -1.03092783505155 | 85.2085853833401 | -25.9174620244656 | 25.7575757575758 | -13.8613861386139 | 0.952380952380952 | 11.1111111111111 | -43.359375 | 11.9047619047619 | -7.69230769230769 | 33.6283185840708 | -25 | 1.35135135135135 | 2.83687943262411 | 20.18779342723 | -33.3333333333333 | -16.6666666666667 | -22.2222222222222 | 11.6279069767442 | 5.47945205479452 | 65.4545454545455 | 96 | 4.65116279069768 | 21.7391304347826 | -35.0901525658807 | -23.0366492146597 | -1.5015015015015 | -15.8730158730159 | 3.96825396825397 | -15.3409090909091 | 5.73248407643313 | -13.6986301369863 | 28.6435331230284 | 4.88466757123473 | 32.5409836065574 | 47.1229888191982 | 11.0028517110266 | 1.20040318885733 | -23.6444941307993 | 8.11287477954144 | 31.3108891355284 | -0.927783350050162 | 0.174459176552689 | 32.7727727727728 | 37.4074074074074 | 82.1190042501518 | 27.7777777777778 | 50.9776536312849 | 18.1623931623932 | 8.00252047889099 | -15.4776511831727 | 4.22535211267607 | 63.7514220705347 | 28.1549173194082 | 35.8508014796548 | 6.32075471698113, | NORMAL-NORMAL,5, | NORMAL, | NORMAL,33 | 35 | 6 | 11 | 3.42 | 1.428 | 2.0709 | 4.3962 | 18 | 94 | 44.2 | 0.7241 | 3.4 | 2.2757 | 0 | 0.7104 | 61 | 132 | 0.6548 | 0.39 | 127 | 0.91 | 15.4 | 0.12 | 2.6 | 1.96 | 40.5 | 140 | 3.8 | 0.084 | 5 | 0.08 | 0.723 | 56 | 0.404 | 0.22 | 13,49 | 131 | 43 | 36 | 20.52 | 8.568 | 2.6447 | 50 | 7.5253 | 198 | 112 | 114.92 | 2.87 | 1.8361 | 5.4 | 5.2496 | 7.24 | 1.6468 | 84 | 147 | 3.6128 | 0.2 | 2 | 0.57 | 6.8 | 0.54 | 181 | 4.28 | 48.5 | 0.92 | 10.1 | 7.23 | 75 | 400 | 10.7 | 0.724 | 26 | 0.616 | 22 | 2.737 | 86 | 1.612 | 58 | 1.129 | 39,Y | ,,,,Y,,Y,2014-03-19,2014-03-19 15:03:00,38,78,26,16,0.04,0.5,13.68,5.712,2.3952,413.33 | 165.33,0.393,14.9,0.166,6.3,2.039,77.3,1.617,755.3 | 46.71,220.88 | 13.66,61.3,638.88,39.51,28.71,464.24,3.71,59.99,0.391,43.24 | 11.06,188.54 | 48.22,14.8,115.15,29.45,44.07 | 11.27,,6.43914,87,106,88.4,,7.25,0.06,0.7,,,,,0.48,1.21542,154,,3.6,3.90486,,2.73,34.3,0.45,5.6,,4.68,58.8,0.87183,328,75,145,2.89024,7.95,35.61 | 35605,,,,,,,,,,,,,,,,,,,,,,,,,,,,,,,,,,,,,,,,,,,,,,,,,,,,,,,,,,,,,,,,,,,,,,,,,,,,,,,,,,,,,,,,,,,,,,,,,,,,,,,,54781532UCO2001,PC,1,JNJ-54781532,ng/mL,PLASMA,2014-03-19,2014-03-19 13:42:00,49320,58.0,PREDOSE,-0.001,Y,Y,Y,57.0,USA,WHITE,M,Placebo to JNJ-54781532 150 mg QD,6.0,Placebo to JNJ-54781532 150 mg QD,6.0,,0.125,,,,,,,,,,,,,,,,,,,,,,,,,,,,,,,,,,,,,,,,,,,,,,,,,,,,,,,,,,,,,,,,,,,,,,,,,,,,,,,,,,,,,,,,,,,,,,,,,,,,,,,,,,,,,,,,,,,,,54781532UCO2001,US00920,1.0,Y,2014-03-19T14:28,30008,WEEK 8,5 | 18 | 30 | 42 | 52,Placebo,1.0,Diastolic Blood Pressure (mmHg) | Heart Rate (BEATS/MIN) | Respiratory Rate (BREATHS/MIN) | Systolic Blood Pressure (mmHg) | Weight (kg),4 | 1 | 2 | 3 | 5,89,,100,18,148,84.4,,,,,,,,,,,,,,,,,,,,,,,,,,,,,,,,,,,,,,,,,,,,,,,,,,,,,,,,,,,,,,,,,,,,,,,,,,
54781532UCO2001-001,WEEK 12,30012,30012-WEEK 12,,,,,,,,,,,,,,,,,,,,,,,,,,,,,,,,,,,,,,,,,,,,,,,,,,,,,,,,,,,,,,,,,,,,,,,,,,,,,,,,,,,,,,54781532UCO2001,1.0,US00920,57.0,YEARS,>= 40 years,2.0,M,USA,North America,1.0,WHITE,Caucasian,1.0,84.4,>= 75 kg,2.0,3.0,<= 5 years,1.0,LIMITED TO LEFT SIDE OF COLON,Present,11.0,>= 9,2.0,Severe,2.0,0.0,3.0,12.8,>= 3 mg/L,2.0,N,Y,N,Y,Y,Y,Y,Y,N,Y,N,Placebo,1.0,87 | 88 | 83 | 84 | 85 | 86 | 80 | 81 | 82 | 78 | 79 | 77,CRP Score | Partial Mayo Clinical Remission | Partial Mayo Clinical Response | Physicians Global Assessment | Partial Mayo Score | Rectal Bleeding | Worse Rectal Bleeding | Stool Frequency,33 | 22 | 29 | 4 | 8 | 2 | 3 | 1,, | TF | Derived,, | Y,12.8 | 3 | 8 | 2,-11.09 | 0 | -4 | -2,2014-04-17 00:00:00,87,,2014-03-19,Y,Y,N,N,,1.71 | 12.8,,,,,,,,,,,,N,3.0,4 | 8,0.0,0.0,,,,1.0,,Y | N,,,,,,,,,,,,,,,,,,,,,,,,,,,,,,,,,,,,,,,,,,,54781532UCO2001,1.0,Y,N,Placebo to JNJ-54781532 150 mg QD,6.0,Placebo to JNJ-54781532 150 mg QD,6.0,6 | 18 | 30 | 42 | 54 | 66 | 78 | 103 | 115 | 127 | 139 | 154 | 178 | 190 | 202 | 218 | 230 | 242 | 254 | 266 | 278 | 290 | 302 | 314 | 326 | 338 | 350 | 362 | 374,CHEMISTRY | HEMATOLOGY,33 | 35 | 6 | 11 | 3.42 | 1.428 | 2.07085 | 18 | 94 | 44.2 | 3.4 | 0.71038 | 61 | 132 | 0 | 0.39 | 127 | 0.91 | 15.4 | 0.12 | 2.6 | 1.96 | 40.5 | 140 | 3.8,49 | 131 | 43 | 36 | 20.52 | 8.568 | 2.6447 | 198 | 112 | 114.92 | 2.87 | 5.4 | 1.64679 | 84 | 147 | 0.2 | 2 | 0.57 | 6.8 | 0.54 | 181 | 4.28 | 48.5 | 0.92 | 10.1 | 7.23 | 75 | 400 | 10.7,,NORMAL | HIGH | LOW,,,,30012,WEEK 12,2014-04-17T13:45,87,SERUM | , | HIGH SENSITIVITY ASSAY,ROOM TEMPERATURE,,"SERUM Albumin (g/L) | Alkaline Phosphatase (U/L) | Alanine Aminotransferase (U/L) | Aspartate Aminotransferase (U/L) | Bilirubin (umol/L) | Blood Urea Nitrogen (mmol/L) | Calcium (mmol/L) | Creatine Kinase (U/L) | Chloride (mmol/L) | Creatinine (umol/L) | C Reactive Protein (mg/L) | Potassium (mmol/L) | Phosphate (mmol/L) | Protein (g/L) | Sodium (mmol/L) | Basophils (x10E9/L) | Basophils/Leukocytes (%) | Eosinophils (x10E9/L) | Eosinophils/Leukocytes (%) | Hematocrit (fraction) | Hemoglobin (g/L) | Lymphocytes (x10E9/L) | Lymphocytes/Leukocytes (%) | Monocytes (x10E9/L) | Monocytes/Leukocytes (%) | Neutrophils, Segmented (x10E9/L) | Neutrophils, Segmented/Leukocytes (%) | Platelets (x10E9/L) | Leukocytes (x10E9/L)",1 | 2 | 3 | 4 | 8 | 9 | 10 | 37 | 39 | 40 | 42 | 59 | 79 | 84 | 86 | 5 | 7 | 43 | 44 | 53 | 55 | 63 | 66 | 70 | 71 | 77 | 78 | 80 | 89,35 | 68 | 20 | 14 | 10.26 | 4.998 | 2.42015 | 101 | 105 | 79.56 | 12.8 | 3.9 | 1.16244 | 74 | 141 | 0.06 | 0.6 | 0.08 | 0.9 | 0.43 | 146 | 1.65 | 17.5 | 4.6 | 7.21 | 76.4 | 333 | 9.45,3 | -4 | 7 | 5 | 0 | 0.357 | 0.12475 | 91 | -1 | 26.52 | -11.09 | -0.16145 | -3 | 0.16 | 2.1 | 0.06 | 0.9 | -0.01 | -0.58 | -4.3 | -0.09 | -0.399999999999999 | -0.91 | 1.69999999999999 | -28 | -1.38,8.57142857142857 | -5.88235294117647 | 35 | 35.7142857142857 | 0 | 7.14285714285715 | 5.15463917525772 | 90.0990099009901 | -0.952380952380952 | 33.3333333333333 | -86.640625 | -13.8888888888889 | -4.05405405405405 | -0.709219858156028 | 266.666666666667 | 350 | 75 | 100 | -2.32558139534884 | 3.42465753424658 | -35.1515151515151 | -24.5714285714286 | -20.9302325581395 | -8.69565217391303 | -12.621359223301 | 2.22513089005234 | -8.40840840840841 | -14.6031746031746,,,,,33 | 35 | 6 | 11 | 3.42 | 1.428 | 2.0709 | 18 | 94 | 44.2 | 3.4 | 0.7104 | 61 | 132 | 0 | 0.39 | 127 | 0.91 | 15.4 | 0.12 | 2.6 | 1.96 | 40.5 | 140 | 3.8,49 | 131 | 43 | 36 | 20.52 | 8.568 | 2.6447 | 198 | 112 | 114.92 | 2.87 | 5.4 | 1.6468 | 84 | 147 | 0.2 | 2 | 0.57 | 6.8 | 0.54 | 181 | 4.28 | 48.5 | 0.92 | 10.1 | 7.23 | 75 | 400 | 10.7,Y,,,,Y,,,2014-03-19,2014-03-19 15:03:00,38,64,27,19,0.22,2.7,10.26,5.355,2.5449,,,,,,,,,,,,,,,,,,,,,,,,,,,192,104,106.08,,1.71,0.14,1.8,,,,,0.42,,151,,3.9,,,1.07,13.2,0.34,4.2,,6.3,78.1,1.00099,305,71,140,,8.07,,,,,,,,,,,,,,,,,,,,,,,,,,,,,,,,,,,,,,,,,,,,,,,,,,,,,,,,,,,,,,,,,,,,,,,,,,,,,,,,,,,,,,,,,,,,,,,,,,,,,,,,,,,,,,,,,,,,,,,,,,,,,,,,,,,,,,,,,,,,,,,,,,,,,,,,,,,,,,,,,,,,,,,,,,,,,,,,,,,,,,,,,,,,,,,,,,,,,,,,,,,,,,,,,,,,,,,,,,,,,,,,,,,,,,,,,,,,,,,,,,,,,,54781532UCO2001,US00920,1.0,Y,2014-04-17T13:15,30012,WEEK 12,6 | 19 | 31 | 43,Placebo to JNJ-54781532 150 mg QD,6.0,Diastolic Blood Pressure (mmHg) | Heart Rate (BEATS/MIN) | Respiratory Rate (BREATHS/MIN) | Systolic Blood Pressure (mmHg),4 | 1 | 2 | 3,72,,86,18,130,,,,,,,,,,,,,,,,,,,,,,,,,,,,,,,,,,,,,,,,,,,,,,,,,,,,,,,,,,,,,,,,,,,,,,,,,,,
54781532UCO2001-001,WEEK 16,30016,30016-WEEK 16,,,,,,,,,,,,,,,,,,,,,,,,,,,,,,,,,,,,,,,,,,,,,,,,,,,,,,,,,,,,,,,,,,,,,,,,,,,,,,,,,,,,,,54781532UCO2001,1.0,US00920,57.0,YEARS,>= 40 years,2.0,M,USA,North America,1.0,WHITE,Caucasian,1.0,84.4,>= 75 kg,2.0,3.0,<= 5 years,1.0,LIMITED TO LEFT SIDE OF COLON,Present,11.0,>= 9,2.0,Severe,2.0,0.0,3.0,12.8,>= 3 mg/L,2.0,N,Y,N,Y,Y,Y,Y,Y,N,Y,N,Placebo,1.0,99 | 100 | 103 | 104 | 101 | 102 | 95 | 96 | 97 | 98 | 92 | 93 | 94 | 90 | 91 | 89,Calprotectin Score | CRP Score | Lactoferrin Score | Partial Mayo Clinical Remission | Partial Mayo Clinical Response | Physicians Global Assessment | Partial Mayo Score | Rectal Bleeding | Worse Rectal Bleeding | Stool Frequency,31 | 33 | 32 | 22 | 29 | 4 | 8 | 2 | 3 | 1,, | TF | Derived,, | Y,557.93 | 12.8 | 1e+06 | 3 | 8 | 2,1372.65 | 0 | -8.33 | -720161 | -4 | -2,2014-05-19 00:00:00,119,,2014-03-19,Y,Y,N,N,1930.58 | 557.93,4.47 | 12.8,,,,,,,,279839 | 1e+06,,,,N,3.0,4 | 8,0.0,0.0,,,,1.0,,Y | N,,,,,,,,,,,,,,,,,,,,,,,,,,,,,,,,,,,,,,,,,,,54781532UCO2001,1.0,Y,N,Placebo to JNJ-54781532 150 mg QD,6.0,Placebo to JNJ-54781532 150 mg QD,6.0,7 | 19 | 31 | 43 | 55 | 67 | 79 | 87 | 91 | 104 | 116 | 128 | 140 | 155 | 167 | 171 | 179 | 191 | 203 | 219 | 231 | 243 | 255 | 267 | 279 | 291 | 303 | 315 | 327 | 339 | 351 | 363 | 375,CHEMISTRY | HEMATOLOGY,33 | 35 | 6 | 11 | 3.42 | 1.428 | 2.07085 | 18 | 94 | 44.2 | 3.4 | 0 | 0.71038 | 61 | 132 | 0.39 | 127 | 0.91 | 15.4 | 0.12 | 2.6 | 1.96 | 40.5 | 140 | 3.8,49 | 131 | 43 | 36 | 20.52 | 8.568 | 2.6447 | 50 | 198 | 112 | 114.92 | 2.87 | 5.4 | 7.24 | 1.64679 | 84 | 147 | 0.2 | 2 | 0.57 | 6.8 | 0.54 | 181 | 4.28 | 48.5 | 0.92 | 10.1 | 7.23 | 75 | 400 | 10.7,,NORMAL | HIGH | ,,,,30016,WEEK 16,2014-05-19T13:55,119,SERUM |  | STOOL, | ASSAY YIELDING BY MASS RESULTS | ASSAY YIELDING BY VOLUME RESULTS | HIGH SENSITIVITY ASSAY,ROOM TEMPERATURE | FROZEN,,"SERUM Albumin (g/L) | Alkaline Phosphatase (U/L) | Alanine Aminotransferase (U/L) | Aspartate Aminotransferase (U/L) | Bilirubin (umol/L) | Blood Urea Nitrogen (mmol/L) | Calcium (mmol/L) | STOOL Calprotectin (ug/g) | STOOL Calprotectin (ug/L) | Creatine Kinase (U/L) | Chloride (mmol/L) | Creatinine (umol/L) | C Reactive Protein (mg/L) | Potassium (mmol/L) | STOOL Lactoferrin (ug/g) | STOOL Lactoferrin (ug/L) | Phosphate (mmol/L) | Protein (g/L) | Sodium (mmol/L) | Basophils (x10E9/L) | Basophils/Leukocytes (%) | Eosinophils (x10E9/L) | Eosinophils/Leukocytes (%) | Hematocrit (fraction) | Hemoglobin (g/L) | Lymphocytes (x10E9/L) | Lymphocytes/Leukocytes (%) | Monocytes (x10E9/L) | Monocytes/Leukocytes (%) | Neutrophils, Segmented (x10E9/L) | Neutrophils, Segmented/Leukocytes (%) | Platelets (x10E9/L) | Leukocytes (x10E9/L)",1 | 2 | 3 | 4 | 8 | 9 | 10 | 11 | 37 | 39 | 40 | 42 | 59 | 62 | 79 | 84 | 86 | 5 | 7 | 43 | 44 | 53 | 55 | 63 | 66 | 70 | 71 | 77 | 78 | 80 | 89,35 | 68 | 20 | 14 | 10.26 | 4.998 | 2.42015 | 223.17 | 101 | 105 | 79.56 | 12.8 | 3.9 | 1.16244 | 74 | 141 | 0.06 | 0.6 | 0.08 | 0.9 | 0.43 | 146 | 1.65 | 17.5 | 4.6 | 7.21 | 76.4 | 333 | 9.45,5 | 0 | 4 | 6 | 1.071 | 0.0997999999999997 | 1707.41 | 549.06 | 33 | 3 | 26.52 | -8.33 | -0.1 | -0.0322900000000002 | -0.02 | -0.3 | 0.01 | -0.2 | 0.03 | 14 | 0.73 | 0.100000000000001 | 0.16 | -0.199999999999999 | 3.25 | 0.799999999999997 | 32 | 4.11,14.2857142857143 | 0 | 20 | 42.8571428571429 | 21.4285714285714 | 4.12371134020617 | 765.071470179684 | 246.027691894072 | 32.6732673267327 | 2.85714285714286 | 33.3333333333333 | -65.078125 | -2.56410256410257 | -2.77777777777779 | 2.83687943262411 | -33.3333333333333 | -50 | 12.5 | -22.2222222222222 | 6.97674418604652 | 9.58904109589041 | 44.2424242424242 | 0.57142857142858 | 37.2093023255814 | -4.34782608695651 | 45.0762829403606 | 1.04712041884816 | 9.60960960960961 | 43.4920634920635,,,,,33 | 35 | 6 | 11 | 3.42 | 1.428 | 2.0709 | 18 | 94 | 44.2 | 3.4 | 0 | 0.7104 | 61 | 132 | 0.39 | 127 | 0.91 | 15.4 | 0.12 | 2.6 | 1.96 | 40.5 | 140 | 3.8,49 | 131 | 43 | 36 | 20.52 | 8.568 | 2.6447 | 50 | 198 | 112 | 114.92 | 2.87 | 5.4 | 7.24 | 1.6468 | 84 | 147 | 0.2 | 2 | 0.57 | 6.8 | 0.54 | 181 | 4.28 | 48.5 | 0.92 | 10.1 | 7.23 | 75 | 400 | 10.7,Y | ,,,,Y,,,2014-03-19,2014-03-19 15:03:00,40,68,24,20,0.04,0.3,10.26,6.069,2.51995,1930.58 | 772.23,,,,,,,,,,,,,,,,,,,,,,,,,,134,108,106.08,,4.47,0.09,0.7,,,,,0.46,,160,,3.8,,,2.38,17.6,0.59,4.4,,10.46,77.2,1.13015,365,74,145,,13.56,279.84 | 279839,,,,,,,,,,,,,,,,,,,,,,,,,,,,,,,,,,,,,,,,,,,,,,,,,,,,,,,,,,,,,,,,,,,,,,,,,,,,,,,,,,,,,,,,,,,,,,,,,,,,,,,,,,,,,,,,,,,,,,,,,,,,,,,,,,,,,,,,,,,,,,,,,,,,,,,,,,,,,,,,,,,,,,,,,,,,,,,,,,,,,,,,,,,,,,,,,,,,,,,,,,,,,,,,,,,,,,,,,,,,,,,,,,,,,,,,,,,,,,,,,,,,,54781532UCO2001,US00920,1.0,Y,2014-05-19T13:40,30016,WEEK 16,7 | 20 | 32 | 44,Placebo to JNJ-54781532 150 mg QD,6.0,Diastolic Blood Pressure (mmHg) | Heart Rate (BEATS/MIN) | Respiratory Rate (BREATHS/MIN) | Systolic Blood Pressure (mmHg),4 | 1 | 2 | 3,78,,86,18,122,,,,,,,,,,,,,,,,,,,,,,,,,,,,,,,,,,,,,,,,,,,,,,,,,,,,,,,,,,,,,,,,,,,,,,,,,,,
54781532UCO2001-001,WEEK 20,30020,30020-WEEK 20,,,,,,,,,,,,,,,,,,,,,,,,,,,,,,,,,,,,,,,,,,,,,,,,,,,,,,,,,,,,,,,,,,,,,,,,,,,,,,,,,,,,,,54781532UCO2001,1.0,US00920,57.0,YEARS,>= 40 years,2.0,M,USA,North America,1.0,WHITE,Caucasian,1.0,84.4,>= 75 kg,2.0,3.0,<= 5 years,1.0,LIMITED TO LEFT SIDE OF COLON,Present,11.0,>= 9,2.0,Severe,2.0,0.0,3.0,12.8,>= 3 mg/L,2.0,N,Y,N,Y,Y,Y,Y,Y,N,Y,N,Placebo,1.0,115 | 116 | 111 | 112 | 113 | 114 | 108 | 109 | 110 | 106 | 107 | 105,CRP Score | Partial Mayo Clinical Remission | Partial Mayo Clinical Response | Physicians Global Assessment | Partial Mayo Score | Rectal Bleeding | Worse Rectal Bleeding | Stool Frequency,33 | 22 | 29 | 4 | 8 | 2 | 3 | 1,, | TF | Derived,, | Y,12.8 | 3 | 8 | 2,-10.12 | 0 | -1 | -6 | -2 | -3,2014-06-13 00:00:00,144,,2014-03-19,Y,Y,N,N,,2.68 | 12.8,,,,,,,,,,,,Y | N,2.0,2 | 8,0.0,0.0,,,,0.0,,Y | N,,,,,,,,,,,,,,,,,,,,,,,,,,,,,,,,,,,,,,,,,,,54781532UCO2001,1.0,Y,N,Placebo to JNJ-54781532 150 mg QD,6.0,Placebo to JNJ-54781532 150 mg QD,6.0,8 | 20 | 32 | 44 | 56 | 68 | 80 | 105 | 117 | 129 | 141 | 156 | 180 | 192 | 204 | 220 | 232 | 244 | 256 | 268 | 280 | 292 | 304 | 316 | 328 | 340 | 352 | 364 | 376,CHEMISTRY | HEMATOLOGY,33 | 35 | 6 | 11 | 3.42 | 1.428 | 2.07085 | 18 | 94 | 44.2 | 3.4 | 0.71038 | 61 | 132 | 0 | 0.39 | 127 | 0.91 | 15.4 | 0.12 | 2.6 | 1.96 | 40.5 | 140 | 3.8,49 | 131 | 43 | 36 | 20.52 | 8.568 | 2.6447 | 198 | 112 | 114.92 | 2.87 | 5.4 | 1.64679 | 84 | 147 | 0.2 | 2 | 0.57 | 6.8 | 0.54 | 181 | 4.28 | 48.5 | 0.92 | 10.1 | 7.23 | 75 | 400 | 10.7,,NORMAL | HIGH | LOW,,1,,30020,WEEK 20,2014-06-13T13:45,144,SERUM | , | HIGH SENSITIVITY ASSAY,ROOM TEMPERATURE,,"SERUM Albumin (g/L) | Alkaline Phosphatase (U/L) | Alanine Aminotransferase (U/L) | Aspartate Aminotransferase (U/L) | Bilirubin (umol/L) | Blood Urea Nitrogen (mmol/L) | Calcium (mmol/L) | Creatine Kinase (U/L) | Chloride (mmol/L) | Creatinine (umol/L) | C Reactive Protein (mg/L) | Potassium (mmol/L) | Phosphate (mmol/L) | Protein (g/L) | Sodium (mmol/L) | Basophils (x10E9/L) | Basophils/Leukocytes (%) | Eosinophils (x10E9/L) | Eosinophils/Leukocytes (%) | Hematocrit (fraction) | Hemoglobin (g/L) | Lymphocytes (x10E9/L) | Lymphocytes/Leukocytes (%) | Monocytes (x10E9/L) | Monocytes/Leukocytes (%) | Neutrophils, Segmented (x10E9/L) | Neutrophils, Segmented/Leukocytes (%) | Platelets (x10E9/L) | Leukocytes (x10E9/L)",1 | 2 | 3 | 4 | 8 | 9 | 10 | 37 | 39 | 40 | 42 | 59 | 79 | 84 | 86 | 5 | 7 | 43 | 44 | 53 | 55 | 63 | 66 | 70 | 71 | 77 | 78 | 80 | 89,35 | 68 | 20 | 14 | 10.26 | 4.998 | 2.42015 | 101 | 105 | 79.56 | 12.8 | 3.9 | 1.16244 | 74 | 141 | 0.06 | 0.6 | 0.08 | 0.9 | 0.43 | 146 | 1.65 | 17.5 | 4.6 | 7.21 | 76.4 | 333 | 9.45,7 | -6 | 11 | 10 | 1.71 | 0.714 | 0.0997999999999997 | 107 | -1 | 8.84 | -10.12 | 0 | -0.12916 | -0.01 | -0.1 | -0.3 | 0.01 | 4 | -0.36 | -6.2 | -0.07 | -1.5 | 2.45 | 8.09999999999999 | 1.98,20 | -8.82352941176471 | 55 | 71.4285714285714 | 16.6666666666667 | 14.2857142857143 | 4.12371134020617 | 105.940594059406 | -0.952380952380952 | 11.1111111111111 | -79.0625 | 0 | -11.1111111111111 | -1.35135135135135 | -16.6666666666667 | -12.5 | -33.3333333333333 | 2.32558139534884 | 2.73972602739726 | -21.8181818181818 | -35.4285714285714 | -16.2790697674419 | -32.6086956521739 | 33.9805825242718 | 10.6020942408377 | -0.3003003003003 | 20.952380952381,,,,,33 | 35 | 6 | 11 | 3.42 | 1.428 | 2.0709 | 18 | 94 | 44.2 | 3.4 | 0.7104 | 61 | 132 | 0 | 0.39 | 127 | 0.91 | 15.4 | 0.12 | 2.6 | 1.96 | 40.5 | 140 | 3.8,49 | 131 | 43 | 36 | 20.52 | 8.568 | 2.6447 | 198 | 112 | 114.92 | 2.87 | 5.4 | 1.6468 | 84 | 147 | 0.2 | 2 | 0.57 | 6.8 | 0.54 | 181 | 4.28 | 48.5 | 0.92 | 10.1 | 7.23 | 75 | 400 | 10.7,Y,,, | Y,Y,,,2014-03-19,2014-03-19 15:03:00,42,62,31,24,0.05,0.5,11.97,5.712,2.51995,,,,,,,,,,,,,,,,,,,,,,,,,,,208,104,88.4,,2.68,0.07,0.6,,,,,0.44,,150,,3.9,,,1.29,11.3,0.36,3.1,,9.66,84.5,1.03328,332,73,141,,11.43,,,,,,,,,,,,,,,,,,,,,,,,,,,,,,,,,,,,,,,,,,,,,,,,,,,,,,,,,,,,,,,,,,,,,,,,,,,,,,,,,,,,,,,,,,,,,,,,,,,,,,,,,,,,,,,,,,,,,,,,,,,,,,,,,,,,,,,,,,,,,,,,,,,,,,,,,,,,,,,,,,,,,,,,,,,,,,,,,,,,,,,,,,,,,,,,,,,,,,,,,,,,,,,,,,,,,,,,,,,,,,,,,,,,,,,,,,,,,,,,,,,,,,54781532UCO2001,US00920,1.0,Y,2014-06-13T13:45,30020,WEEK 20,8 | 21 | 33 | 45,Placebo to JNJ-54781532 150 mg QD,6.0,Diastolic Blood Pressure (mmHg) | Heart Rate (BEATS/MIN) | Respiratory Rate (BREATHS/MIN) | Systolic Blood Pressure (mmHg),4 | 1 | 2 | 3,78,,76,20,134,,,,,,,,,,,,,,,,,,,,,,,,,,,,,,,,,,,,,,,,,,,,,,,,,,,,,,,,,,,,,,,,,,,,,,,,,,,
54781532UCO2001-001,WEEK 24,30024,30024-WEEK 24,,,,,,,,,,,,,,,,,,,,,,,,,,,,,,,,,,,,,,,,,,,,,,,,,,,,,,,,,,,,,,,,,,,,,,,,,,,,,,,,,,,,,,54781532UCO2001,1.0,US00920,57.0,YEARS,>= 40 years,2.0,M,USA,North America,1.0,WHITE,Caucasian,1.0,84.4,>= 75 kg,2.0,3.0,<= 5 years,1.0,LIMITED TO LEFT SIDE OF COLON,Present,11.0,>= 9,2.0,Severe,2.0,0.0,3.0,12.8,>= 3 mg/L,2.0,N,Y,N,Y,Y,Y,Y,Y,N,Y,N,Placebo,1.0,127 | 128 | 123 | 124 | 125 | 126 | 120 | 121 | 122 | 118 | 119 | 117,CRP Score | Partial Mayo Clinical Remission | Partial Mayo Clinical Response | Physicians Global Assessment | Partial Mayo Score | Rectal Bleeding | Worse Rectal Bleeding | Stool Frequency,33 | 22 | 29 | 4 | 8 | 2 | 3 | 1,, | TF | Derived,, | Y,12.8 | 3 | 8 | 2,-10.6 | 0 | -1 | -5 | -2,2014-07-16 00:00:00,177,,2014-03-19,Y,Y,N,N,,2.2 | 12.8,,,,,,,,,,,,N,2.0,3 | 8,0.0,0.0,,,,1.0,,Y | N,,,,,,,,,,,,,,,,,,,,,,,,,,,,,,,,,,,,,,,,,,,54781532UCO2001,1.0,Y,N,Placebo to JNJ-54781532 150 mg QD,6.0,Placebo to JNJ-54781532 150 mg QD,6.0,9 | 21 | 33 | 45 | 57 | 69 | 81 | 106 | 118 | 130 | 142 | 157 | 181 | 193 | 205 | 221 | 233 | 245 | 257 | 269 | 281 | 293 | 305 | 317 | 329 | 341 | 353 | 365 | 377,CHEMISTRY | HEMATOLOGY,33 | 35 | 6 | 11 | 3.42 | 1.428 | 2.07085 | 18 | 94 | 44.2 | 3.4 | 0.71038 | 61 | 132 | 0 | 0.39 | 127 | 0.91 | 15.4 | 0.12 | 2.6 | 1.96 | 40.5 | 140 | 3.8,49 | 131 | 43 | 36 | 20.52 | 8.568 | 2.6447 | 198 | 112 | 114.92 | 2.87 | 5.4 | 1.64679 | 84 | 147 | 0.2 | 2 | 0.57 | 6.8 | 0.54 | 181 | 4.28 | 48.5 | 0.92 | 10.1 | 7.23 | 75 | 400 | 10.7,,NORMAL | LOW | HIGH,,,,30024,WEEK 24,2014-07-16T13:50,177,SERUM | , | HIGH SENSITIVITY ASSAY,ROOM TEMPERATURE,,"SERUM Albumin (g/L) | Alkaline Phosphatase (U/L) | Alanine Aminotransferase (U/L) | Aspartate Aminotransferase (U/L) | Bilirubin (umol/L) | Blood Urea Nitrogen (mmol/L) | Calcium (mmol/L) | Creatine Kinase (U/L) | Chloride (mmol/L) | Creatinine (umol/L) | C Reactive Protein (mg/L) | Potassium (mmol/L) | Phosphate (mmol/L) | Protein (g/L) | Sodium (mmol/L) | Basophils (x10E9/L) | Basophils/Leukocytes (%) | Eosinophils (x10E9/L) | Eosinophils/Leukocytes (%) | Hematocrit (fraction) | Hemoglobin (g/L) | Lymphocytes (x10E9/L) | Lymphocytes/Leukocytes (%) | Monocytes (x10E9/L) | Monocytes/Leukocytes (%) | Neutrophils, Segmented (x10E9/L) | Neutrophils, Segmented/Leukocytes (%) | Platelets (x10E9/L) | Leukocytes (x10E9/L)",1 | 2 | 3 | 4 | 8 | 9 | 10 | 37 | 39 | 40 | 42 | 59 | 79 | 84 | 86 | 5 | 7 | 43 | 44 | 53 | 55 | 63 | 66 | 70 | 71 | 77 | 78 | 80 | 89,35 | 68 | 20 | 14 | 10.26 | 4.998 | 2.42015 | 101 | 105 | 79.56 | 12.8 | 3.9 | 1.16244 | 74 | 141 | 0.06 | 0.6 | 0.08 | 0.9 | 0.43 | 146 | 1.65 | 17.5 | 4.6 | 7.21 | 76.4 | 333 | 9.45,6 | -10 | 7 | 5 | 0 | -0.02495 | 86 | 2 | 8.84 | -10.6 | -0.3 | -0.16145 | -4 | -0.01 | -0.1 | -0.02 | -1 | -0.34 | -4.1 | 0.03 | 0.100000000000001 | 0.71 | 4.39999999999999 | -49 | 0.350000000000001,17.1428571428571 | -14.7058823529412 | 35 | 35.7142857142857 | 0 | -1.03092783505155 | 85.1485148514851 | 1.9047619047619 | 11.1111111111111 | -82.8125 | -7.69230769230769 | -13.8888888888889 | -5.40540540540541 | 1.41843971631206 | -16.6666666666667 | -25 | -33.3333333333333 | -4.65116279069767 | -0.684931506849315 | -20.6060606060606 | -23.4285714285714 | 6.97674418604652 | 2.17391304347827 | 9.84743411927878 | 5.75916230366491 | -14.7147147147147 | 3.70370370370372,,,,,33 | 35 | 6 | 11 | 3.42 | 1.428 | 2.0709 | 18 | 94 | 44.2 | 3.4 | 0.7104 | 61 | 132 | 0 | 0.39 | 127 | 0.91 | 15.4 | 0.12 | 2.6 | 1.96 | 40.5 | 140 | 3.8,49 | 131 | 43 | 36 | 20.52 | 8.568 | 2.6447 | 198 | 112 | 114.92 | 2.87 | 5.4 | 1.6468 | 84 | 147 | 0.2 | 2 | 0.57 | 6.8 | 0.54 | 181 | 4.28 | 48.5 | 0.92 | 10.1 | 7.23 | 75 | 400 | 10.7,Y,,,,Y,,,2014-03-19,2014-03-19 15:03:00,41,58,27,19,0.05,0.5,10.26,4.998,2.3952,,,,,,,,,,,,,,,,,,,,,,,,,,,187,107,88.4,,2.2,0.06,0.6,,,,,0.41,,145,,3.6,,,1.31,13.4,0.46,4.7,,7.92,80.8,1.00099,284,70,143,,9.8,,,,,,,,,,,,,,,,,,,,,,,,,,,,,,,,,,,,,,,,,,,,,,,,,,,,,,,,,,,,,,,,,,,,,,,,,,,,,,,,,,,,,,,,,,,,,,,,,,,,,,,,,,,,,,,,,,,,,,,,,,,,,,,,,,,,,,,,,,,,,,,,,,,,,,,,,,,,,,,,,,,,,,,,,,,,,,,,,,,,,,,,,,,,,,,,,,,,,,,,,,,,,,,,,,,,,,,,,,,,,,,,,,,,,,,,,,,,,,,,,,,,,,54781532UCO2001,US00920,1.0,Y,2014-07-16T13:40,30024,WEEK 24,9 | 22 | 34 | 46,Placebo to JNJ-54781532 150 mg QD,6.0,Diastolic Blood Pressure (mmHg) | Heart Rate (BEATS/MIN) | Respiratory Rate (BREATHS/MIN) | Systolic Blood Pressure (mmHg),4 | 1 | 2 | 3,88,,68,18,138,,,,,,,,,,,,,,,,,,,,,,,,,,,,,,,,,,,,,,,,,,,,,,,,,,,,,,,,,,,,,,,,,,,,,,,,,,,
54781532UCO2001-001,WEEK 28,30028,30028-WEEK 28,,,,,,,,,,,,,,,,,,,,,,,,,,,,,,,,,,,,,,,,,,,,,,,,,,,,,,,,,,,,,,,,,,,,,,,,,,,,,,,,,,,,,,54781532UCO2001,1.0,US00920,57.0,YEARS,>= 40 years,2.0,M,USA,North America,1.0,WHITE,Caucasian,1.0,84.4,>= 75 kg,2.0,3.0,<= 5 years,1.0,LIMITED TO LEFT SIDE OF COLON,Present,11.0,>= 9,2.0,Severe,2.0,0.0,3.0,12.8,>= 3 mg/L,2.0,N,Y,N,Y,Y,Y,Y,Y,N,Y,N,Placebo,1.0,139 | 140 | 135 | 136 | 137 | 138 | 132 | 133 | 134 | 130 | 131 | 129,CRP Score | Partial Mayo Clinical Remission | Partial Mayo Clinical Response | Physicians Global Assessment | Partial Mayo Score | Rectal Bleeding | Worse Rectal Bleeding | Stool Frequency,33 | 22 | 29 | 4 | 8 | 2 | 3 | 1,, | TF | Derived,, | Y,12.8 | 3 | 8 | 2,-11.49 | 0 | -1 | -6 | -2 | -3,2014-08-11 00:00:00,203,,2014-03-19,Y,Y,N,N,,1.31 | 12.8,,,,,,,,,,,,Y | N,2.0,2 | 8,0.0,0.0,,,,0.0,,Y | N,,,,,,,,,,,,,,,,,,,,,,,,,,,,,,,,,,,,,,,,,,,54781532UCO2001,1.0,Y,N,Placebo to JNJ-54781532 150 mg QD,6.0,Placebo to JNJ-54781532 150 mg QD,6.0,10 | 22 | 34 | 46 | 58 | 70 | 82 | 107 | 119 | 131 | 143 | 158 | 182 | 194 | 206 | 222 | 234 | 246 | 258 | 270 | 282 | 294 | 306 | 318 | 330 | 342 | 354 | 366 | 378,CHEMISTRY | HEMATOLOGY,33 | 35 | 6 | 11 | 3.42 | 1.428 | 2.07085 | 18 | 94 | 44.2 | 3.4 | 0.71038 | 61 | 132 | 0 | 0.39 | 127 | 0.91 | 15.4 | 0.12 | 2.6 | 1.96 | 40.5 | 140 | 3.8,49 | 131 | 43 | 36 | 20.52 | 8.568 | 2.6447 | 198 | 112 | 114.92 | 2.87 | 5.4 | 1.64679 | 84 | 147 | 0.2 | 2 | 0.57 | 6.8 | 0.54 | 181 | 4.28 | 48.5 | 0.92 | 10.1 | 7.23 | 75 | 400 | 10.7,,NORMAL | HIGH,,,,30028,WEEK 28,2014-08-11T14:15,203,SERUM | , | HIGH SENSITIVITY ASSAY,ROOM TEMPERATURE,,"SERUM Albumin (g/L) | Alkaline Phosphatase (U/L) | Alanine Aminotransferase (U/L) | Aspartate Aminotransferase (U/L) | Bilirubin (umol/L) | Blood Urea Nitrogen (mmol/L) | Calcium (mmol/L) | Creatine Kinase (U/L) | Chloride (mmol/L) | Creatinine (umol/L) | C Reactive Protein (mg/L) | Potassium (mmol/L) | Phosphate (mmol/L) | Protein (g/L) | Sodium (mmol/L) | Basophils (x10E9/L) | Basophils/Leukocytes (%) | Eosinophils (x10E9/L) | Eosinophils/Leukocytes (%) | Hematocrit (fraction) | Hemoglobin (g/L) | Lymphocytes (x10E9/L) | Lymphocytes/Leukocytes (%) | Monocytes (x10E9/L) | Monocytes/Leukocytes (%) | Neutrophils, Segmented (x10E9/L) | Neutrophils, Segmented/Leukocytes (%) | Platelets (x10E9/L) | Leukocytes (x10E9/L)",1 | 2 | 3 | 4 | 8 | 9 | 10 | 37 | 39 | 40 | 42 | 59 | 79 | 84 | 86 | 5 | 7 | 43 | 44 | 53 | 55 | 63 | 66 | 70 | 71 | 77 | 78 | 80 | 89,35 | 68 | 20 | 14 | 10.26 | 4.998 | 2.42015 | 101 | 105 | 79.56 | 12.8 | 3.9 | 1.16244 | 74 | 141 | 0.06 | 0.6 | 0.08 | 0.9 | 0.43 | 146 | 1.65 | 17.5 | 4.6 | 7.21 | 76.4 | 333 | 9.45,8 | -14 | 9 | 5 | 0 | 1.428 | 59 | 3 | 26.52 | -11.49 | -0.4 | -0.12916 | -1 | 0.01 | -0.1 | 0.82 | 5.8 | 0.14 | 0.7 | 0.23 | -6.40000000000001 | 1.18,22.8571428571429 | -20.5882352941176 | 45 | 35.7142857142857 | 0 | 28.5714285714286 | 58.4158415841584 | 2.85714285714286 | 33.3333333333333 | -89.765625 | -10.2564102564103 | -11.1111111111111 | -1.35135135135135 | 2.12765957446809 | 16.6666666666667 | 12.5 | 2.32558139534884 | 3.42465753424658 | 49.6969696969697 | 33.1428571428571 | 32.5581395348837 | 15.2173913043478 | 3.19001386962553 | -8.37696335078535 | 2.4024024024024 | 12.4867724867725,,,,,33 | 35 | 6 | 11 | 3.42 | 1.428 | 2.0709 | 18 | 94 | 44.2 | 3.4 | 0.7104 | 61 | 132 | 0 | 0.39 | 127 | 0.91 | 15.4 | 0.12 | 2.6 | 1.96 | 40.5 | 140 | 3.8,49 | 131 | 43 | 36 | 20.52 | 8.568 | 2.6447 | 198 | 112 | 114.92 | 2.87 | 5.4 | 1.6468 | 84 | 147 | 0.2 | 2 | 0.57 | 6.8 | 0.54 | 181 | 4.28 | 48.5 | 0.92 | 10.1 | 7.23 | 75 | 400 | 10.7,Y,,,,Y,,,2014-03-19,2014-03-19 15:03:00,43,54,29,19,0.07,0.6,10.26,6.426,2.42015,,,,,,,,,,,,,,,,,,,,,,,,,,,160,108,106.08,,1.31,0.09,0.8,,,,,0.44,,151,,3.5,,,2.47,23.3,0.57,5.3,,7.44,70,1.03328,341,73,144,,10.63,,,,,,,,,,,,,,,,,,,,,,,,,,,,,,,,,,,,,,,,,,,,,,,,,,,,,,,,,,,,,,,,,,,,,,,,,,,,,,,,,,,,,,,,,,,,,,,,,,,,,,,,,,,,,,,,,,,,,,,,,,,,,,,,,,,,,,,,,,,,,,,,,,,,,,,,,,,,,,,,,,,,,,,,,,,,,,,,,,,,,,,,,,,,,,,,,,,,,,,,,,,,,,,,,,,,,,,,,,,,,,,,,,,,,,,,,,,,,,,,,,,,,,54781532UCO2001,US00920,1.0,Y,2014-08-11T13:35,30028,WEEK 28,10 | 23 | 35 | 47,Placebo to JNJ-54781532 150 mg QD,6.0,Diastolic Blood Pressure (mmHg) | Heart Rate (BEATS/MIN) | Respiratory Rate (BREATHS/MIN) | Systolic Blood Pressure (mmHg),4 | 1 | 2 | 3,84,,88,18,126,,,,,,,,,,,,,,,,,,,,,,,,,,,,,,,,,,,,,,,,,,,,,,,,,,,,,,,,,,,,,,,,,,,,,,,,,,,
54781532UCO2001-001,WEEK 32,30032,30032-WEEK 32,,,,,,,,,,,,,,,,,,,,,,,,,,,,,,,,,,,,,,,,,,,,,,,,,,,,,,,,,,,,,,,,,,,,,,,,,,,,,,,,,,,,,,54781532UCO2001,1.0,US00920,57.0,YEARS,>= 40 years,2.0,M,USA,North America,1.0,WHITE,Caucasian,1.0,84.4,>= 75 kg,2.0,3.0,<= 5 years,1.0,LIMITED TO LEFT SIDE OF COLON,Present,11.0,>= 9,2.0,Severe,2.0,0.0,3.0,12.8,>= 3 mg/L,2.0,N,Y,N,Y,Y,Y,Y,Y,N,Y,N,Placebo,1.0,151 | 152 | 155 | 156 | 153 | 154 | 147 | 148 | 149 | 150 | 144 | 145 | 146 | 142 | 143 | 141,Calprotectin Score | CRP Score | Lactoferrin Score | Partial Mayo Clinical Remission | Partial Mayo Clinical Response | Physicians Global Assessment | Partial Mayo Score | Rectal Bleeding | Worse Rectal Bleeding | Stool Frequency,31 | 33 | 32 | 22 | 29 | 4 | 8 | 2 | 3 | 1,, | TF | Derived,, | Y,557.93 | 12.8 | 1e+06 | 3 | 8 | 2,-457.3 | 0 | -11.1 | -986750 | -1 | -6 | -2 | -3,2014-09-04 00:00:00,227,,2014-03-19,Y,Y,N,N,100.63 | 557.93,1.7 | 12.8,,,,,,,,13250 | 1e+06,,,,Y | N,2.0,2 | 8,0.0,0.0,,,,0.0,,Y | N,,,,,,,,,,,,54781532UCO2001,1.0,Y,N,Placebo to JNJ-54781532 150 mg QD,6.0,Placebo to JNJ-54781532 150 mg QD,6.0,3.0,1.0,Interpretation,2014-09-04T13:37,227.0,30032.0,WEEK 32,,,Y,NORMAL,,,,,,,,,,,,,54781532UCO2001,1.0,Y,N,Placebo to JNJ-54781532 150 mg QD,6.0,Placebo to JNJ-54781532 150 mg QD,6.0,11 | 23 | 35 | 47 | 59 | 71 | 83 | 88 | 92 | 96 | 108 | 120 | 132 | 144 | 147 | 159 | 163 | 168 | 172 | 183 | 195 | 207 | 211 | 223 | 235 | 247 | 259 | 271 | 283 | 295 | 307 | 319 | 331 | 343 | 355 | 367 | 379 | 383 | 386 | 389 | 392 | 395 | 398 | 401 | 404 | 407 | 410 | 413 | 416 | 419 | 422 | 425 | 428 | 431 | 434 | 437 | 440 | 443 | 446 | 449 | 452 | 455 | 458 | 461 | 464,CHEMISTRY | HEMATOLOGY | IMMUNOLOGY,33 | 35 | 6 | 11 | 3.42 | 1.428 | 2.07085 | 4.3962 | 18 | 94 | 44.2 | 0.72408 | 3.4 | 2.27568 | 0 | 0.71038 | 61 | 132 | 0.65482 | 0.39 | 127 | 0.91 | 15.4 | 0.12 | 2.6 | 1.96 | 40.5 | 140 | 3.8 | 0.084 | 5 | 0.08 | 0.723 | 56 | 0.404 | 0.22 | 13,49 | 131 | 43 | 36 | 20.52 | 8.568 | 2.6447 | 50 | 7.52526 | 198 | 112 | 114.92 | 2.87 | 1.83606 | 5.4 | 5.24958 | 7.24 | 1.64679 | 84 | 147 | 3.6128 | 0.2 | 2 | 0.57 | 6.8 | 0.54 | 181 | 4.28 | 48.5 | 0.92 | 10.1 | 7.23 | 75 | 400 | 10.7 | 0.724 | 26 | 0.616 | 22 | 2.737 | 86 | 1.612 | 58 | 1.129 | 39,,NORMAL | HIGH |  | LOW,,1,,30032,WEEK 32,2014-09-04T14:00,227,SERUM |  | STOOL | BLOOD, | ASSAY YIELDING BY MASS RESULTS | ASSAY YIELDING BY VOLUME RESULTS | HIGH SENSITIVITY ASSAY | CALCULATED | FLOW CYTOMETRY,ROOM TEMPERATURE | FROZEN,N,"SERUM Albumin (g/L) | Alkaline Phosphatase (U/L) | Alanine Aminotransferase (U/L) | Aspartate Aminotransferase (U/L) | Bilirubin (umol/L) | Blood Urea Nitrogen (mmol/L) | Calcium (mmol/L) | STOOL Calprotectin (ug/g) | STOOL Calprotectin (ug/L) | Cholesterol (mmol/L) | Creatine Kinase (U/L) | Chloride (mmol/L) | Creatinine (umol/L) | C Reactive Protein (mg/L) | HDL Cholesterol (mmol/L) | Potassium (mmol/L) | LDL Cholesterol (mmol/L) | STOOL Lactoferrin (ug/g) | STOOL Lactoferrin (ug/L) | Phosphate (mmol/L) | Protein (g/L) | Sodium (mmol/L) | Triglycerides (mmol/L) | Basophils (x10E9/L) | Basophils/Leukocytes (%) | Eosinophils (x10E9/L) | Eosinophils/Leukocytes (%) | Hematocrit (fraction) | Hemoglobin (g/L) | Lymphocytes (x10E9/L) | Lymphocytes/Leukocytes (%) | Monocytes (x10E9/L) | Monocytes/Leukocytes (%) | Neutrophils, Segmented (x10E9/L) | Neutrophils, Segmented/Leukocytes (%) | Platelets (x10E9/L) | Leukocytes (x10E9/L) | CD16 CD56 (x10E9/L) | CD16 CD56/Lymphocytes (%) | CD19 (x10E9/L) | CD19/Lymphocytes (%) | CD3 (x10E9/L) | CD3/Lymphocytes (%) | CD4 (x10E9/L) | BLOOD CD4 Central Memory T Cells (x10E6/L) | BLOOD CD4 Central Memory T Cells/Total Cells (%) | BLOOD CD4 Effector Memory T Cells (x10E6/L) | BLOOD CD4 Effector Memory T Cells/Total Cells (%) | CD4/Lymphocytes (%) | BLOOD CD4 Naive T Cells (x10E6/L) | BLOOD CD4 Naive T Cells/Total Cells (%) | CD4 Type 1 Helper T Cells/CD4 (%) | CD4 Type 1 Helper T Cells (x10E6/L) | BLOOD CD4 Regulatory T Cells/CD4 (%) | BLOOD CD4 Regulatory T Cells (x10E6/L) | CD8 (x10E9/L) | BLOOD CD8 Central Memory T Cells (x10E6/L) | BLOOD CD8 Central Memory T Cells/Total Cells (%) | BLOOD CD8 Effector Memory T Cells (x10E6/L) | BLOOD CD8 Effector Memory T Cells/Total Cells (%) | CD8/Lymphocytes (%) | BLOOD CD8 Naive T Cells (x10E6/L) | BLOOD CD8 Naive T Cells/Total Cells (%) | BLOOD CD8 Term Diff Eff Mem Cells (x10E6/L) | BLOOD CD8 Term Diff Eff Mem Cells/Total Cells (%)",1 | 2 | 3 | 4 | 8 | 9 | 10 | 11 | 36 | 37 | 39 | 40 | 42 | 54 | 59 | 60 | 62 | 79 | 84 | 86 | 87 | 5 | 7 | 43 | 44 | 53 | 55 | 63 | 66 | 70 | 71 | 77 | 78 | 80 | 89 | 12 | 13 | 14 | 15 | 16 | 17 | 18 | 19 | 20 | 21 | 22 | 23 | 24 | 25 | 26 | 27 | 28 | 29 | 30 | 31 | 32 | 33 | 34,35 | 68 | 20 | 14 | 10.26 | 4.998 | 2.42015 | 223.17 | 5.12028 | 101 | 105 | 79.56 | 12.8 | 1.08612 | 3.9 | 2.92218 | 1.16244 | 74 | 141 | 2.40477 | 0.06 | 0.6 | 0.08 | 0.9 | 0.43 | 146 | 1.65 | 17.5 | 4.6 | 7.21 | 76.4 | 333 | 9.45 | 0.378 | 17.6 | 0.157 | 7.3 | 1.585 | 73.7 | 1.22 | 513.38 | 42.08 | 218.26 | 17.89 | 56.7 | 486.54 | 39.88 | 28.66 | 349.65 | 2.7 | 32.94 | 0.306 | 28.64 | 9.36 | 174.57 | 57.05 | 14.2 | 70.32 | 22.98 | 32.44 | 10.6,11 | -12 | 6 | 3 | 5.13 | 0 | -122.54 | -182.92 | 0.95682 | 113 | 2 | 8.84 | -11.1 | 0.31032 | -0.2 | -0.1293 | -0.19374 | -4 | 4 | 1.6935 | -0.02 | -0.1 | -0.01 | 0.01 | 5 | 0.42 | 8.1 | 0.800000000000001 | -1.75 | -8.90000000000001 | -41 | -1.37 | -0.295 | -13.4 | 0.074 | 4.4 | 0.056 | 9.3 | 0.164 | 360.06 | 21.03 | -107.26 | -9.87 | 13.3 | -87.39 | -11.04 | -5.71 | -32.02 | -0.0300000000000002 | 4.01000000000001 | -0.065 | 20.5 | 11.03 | -106.08 | -28.63 | -2 | 41.38 | 23.37 | -20.8 | -5.77,31.4285714285714 | -17.6470588235294 | 30 | 21.4285714285714 | 50 | 0 | -54.9088139086795 | -81.9644217412735 | 18.6868686868687 | 111.881188118812 | 1.9047619047619 | 11.1111111111111 | -86.71875 | 28.5714285714286 | -5.12820512820512 | -4.42477876106194 | -16.6666666666667 | -5.40540540540541 | 2.83687943262411 | 70.4225352112676 | -33.3333333333333 | -12.5 | 2.32558139534884 | 3.42465753424658 | 25.4545454545455 | 46.2857142857143 | 17.3913043478261 | -24.2718446601942 | -11.6492146596859 | -12.3123123123123 | -14.4973544973545 | -78.042328042328 | -76.1363636363636 | 47.1337579617834 | 60.2739726027397 | 3.53312302839117 | 12.6187245590231 | 13.4426229508197 | 70.1351825158752 | 49.9762357414449 | -49.143223678182 | -55.1704863051984 | 23.4567901234568 | -17.9615242323345 | -27.6830491474423 | -19.9232379623168 | -9.15772915772915 | -1.11111111111112 | 12.173649058895 | -21.2418300653595 | 71.5782122905028 | 117.84188034188 | -60.7664547173054 | -50.1840490797546 | -14.0845070422535 | 58.8452787258248 | 101.697127937337 | -64.118372379778 | -54.4339622641509, | NORMAL-NORMAL | NORMAL-HIGH,5 | 6, | NORMAL, | NORMAL | HIGH,33 | 35 | 6 | 11 | 3.42 | 1.428 | 2.0709 | 4.3962 | 18 | 94 | 44.2 | 0.7241 | 3.4 | 2.2757 | 0 | 0.7104 | 61 | 132 | 0.6548 | 0.39 | 127 | 0.91 | 15.4 | 0.12 | 2.6 | 1.96 | 40.5 | 140 | 3.8 | 0.084 | 5 | 0.08 | 0.723 | 56 | 0.404 | 0.22 | 13,49 | 131 | 43 | 36 | 20.52 | 8.568 | 2.6447 | 50 | 7.5253 | 198 | 112 | 114.92 | 2.87 | 1.8361 | 5.4 | 5.2496 | 7.24 | 1.6468 | 84 | 147 | 3.6128 | 0.2 | 2 | 0.57 | 6.8 | 0.54 | 181 | 4.28 | 48.5 | 0.92 | 10.1 | 7.23 | 75 | 400 | 10.7 | 0.724 | 26 | 0.616 | 22 | 2.737 | 86 | 1.612 | 58 | 1.129 | 39,Y | ,,, | Y,Y,,,2014-03-19,2014-03-19 15:03:00,46,56,26,17,0.04,0.5,15.39,4.998,2.42015,100.63 | 40.25,0.083,4.2,0.231,11.7,1.641,83.0,1.384,873.44 | 63.11,111 | 8.02,70.0,399.15,28.84,22.95,317.63,2.67,36.95,0.241,49.14 | 20.39,68.49 | 28.42,12.2,111.7,46.35,11.64 | 4.83,,6.0771,214,107,88.4,,1.7,0.07,0.9,,,,,0.44,1.39644,151,,3.7,2.79288,,2.07,25.6,0.44,5.4,,5.46,67.5,0.9687,292,70,145,4.09827,8.08,13.25 | 13250,,,,,,,,,,,,,,,,,,,,,,,,,,,,,,,,,,,,,,,,,,,,,,,,,,,,,,,,,,,,,,,,,,,,,,,,,,,,,,,,,,,,,,,,,,,,,,,,,,,,,,,,54781532UCO2001,PC,2,JNJ-54781532,ng/mL,PLASMA,2014-09-04,2014-09-04 14:00:00,50400,227.0,,,Y,,Y,57.0,USA,WHITE,M,Placebo to JNJ-54781532 150 mg QD,6.0,Placebo to JNJ-54781532 150 mg QD,6.0,,1.26,,,,,,,,,,,,,,,,,,,,,,,,,,,,,,,,,,,,,,,,,,,,,,,,,,,,,,,,,,,,,,,,,,,,,,,,,,,,,,,,,,,,,,,,,,,,,,,,,,,,,,,,,,,,,,,,,,,,,54781532UCO2001,US00920,1.0,Y,2014-09-04T13:30,30032,WEEK 32,11 | 24 | 36 | 48 | 53,Placebo to JNJ-54781532 150 mg QD,6.0,Diastolic Blood Pressure (mmHg) | Heart Rate (BEATS/MIN) | Respiratory Rate (BREATHS/MIN) | Systolic Blood Pressure (mmHg) | Weight (kg),4 | 1 | 2 | 3 | 5,74,,74,18,113,86.0,,,,,,,,,,,,,,,,,,,,,,,,,,,,,,,,,,,,,,,,,,,,,,,,,,,,,,,,,,,,,,,,,,,,,,,,,,
54781532UCO2001-001,SAFETY FOLLOW-UP VISIT WEEK 4,99004,99004-SAFETY FOLLOW-UP VISIT WEEK 4,,,,,,,,,,,,,,,,,,,,,,,,,,,,,,,,,,,,,,,,,,,,,,,,,,,,,,,,,,,,,,,,,,,,,,,,,,,,,,,,,,,,,,54781532UCO2001,1.0,US00920,57.0,YEARS,>= 40 years,2.0,M,USA,North America,1.0,WHITE,Caucasian,1.0,84.4,>= 75 kg,2.0,3.0,<= 5 years,1.0,LIMITED TO LEFT SIDE OF COLON,Present,11.0,>= 9,2.0,Severe,2.0,0.0,3.0,12.8,>= 3 mg/L,2.0,N,Y,N,Y,Y,Y,Y,Y,N,Y,N,Placebo,1.0,163 | 164 | 165 | 166 | 160 | 161 | 162 | 158 | 159 | 157,Partial Mayo Clinical Remission | Partial Mayo Clinical Response | Physicians Global Assessment | Partial Mayo Score | Rectal Bleeding | Worse Rectal Bleeding | Stool Frequency,22 | 29 | 4 | 8 | 2 | 3 | 1,,Derived | TF | ,, | Y,3 | 8 | 2,0 | -2,2014-10-02 00:00:00,255,,2014-03-19,Y,Y,N,N,,,,,,,,,,,,,,N,3.0,6 | 8,0.0,0.0,,,,3.0,,N,,,,,,,,,,,,54781532UCO2001,1.0,Y,N,Placebo to JNJ-54781532 150 mg QD,6.0,Placebo to JNJ-54781532 150 mg QD,6.0,4.0,1.0,Interpretation,2014-10-02T13:44,255.0,99004.0,SAFETY FOLLOW-UP VISIT WEEK 4,,,Y,NORMAL,,,,,,,,,,,,,54781532UCO2001,1.0,Y,N,Placebo to JNJ-54781532 150 mg QD,6.0,Placebo to JNJ-54781532 150 mg QD,6.0,12 | 24 | 36 | 48 | 60 | 72 | 84 | 97 | 109 | 121 | 133 | 148 | 160 | 164 | 184 | 196 | 208 | 212 | 224 | 236 | 248 | 260 | 272 | 284 | 296 | 308 | 320 | 332 | 344 | 356 | 368 | 380,CHEMISTRY | HEMATOLOGY,33 | 35 | 6 | 11 | 3.42 | 1.428 | 2.07085 | 4.3962 | 18 | 94 | 44.2 | 0.72408 | 3.4 | 2.27568 | 0.71038 | 61 | 132 | 0.65482 | 0 | 0.39 | 127 | 0.91 | 15.4 | 0.12 | 2.6 | 1.96 | 40.5 | 140 | 3.8,49 | 131 | 43 | 36 | 20.52 | 8.568 | 2.6447 | 7.52526 | 198 | 112 | 114.92 | 1.83606 | 5.4 | 5.24958 | 1.64679 | 84 | 147 | 3.6128 | 0.2 | 2 | 0.57 | 6.8 | 0.54 | 181 | 4.28 | 48.5 | 0.92 | 10.1 | 7.23 | 75 | 400 | 10.7,,NORMAL | LOW | HIGH,,,,99004,SAFETY FOLLOW-UP VISIT WEEK 4,2014-10-02T13:50,255,SERUM | , | CALCULATED,ROOM TEMPERATURE,N,"SERUM Albumin (g/L) | Alkaline Phosphatase (U/L) | Alanine Aminotransferase (U/L) | Aspartate Aminotransferase (U/L) | Bilirubin (umol/L) | Blood Urea Nitrogen (mmol/L) | Calcium (mmol/L) | Cholesterol (mmol/L) | Creatine Kinase (U/L) | Chloride (mmol/L) | Creatinine (umol/L) | HDL Cholesterol (mmol/L) | Potassium (mmol/L) | LDL Cholesterol (mmol/L) | Phosphate (mmol/L) | Protein (g/L) | Sodium (mmol/L) | Triglycerides (mmol/L) | Basophils (x10E9/L) | Basophils/Leukocytes (%) | Eosinophils (x10E9/L) | Eosinophils/Leukocytes (%) | Hematocrit (fraction) | Hemoglobin (g/L) | Lymphocytes (x10E9/L) | Lymphocytes/Leukocytes (%) | Monocytes (x10E9/L) | Monocytes/Leukocytes (%) | Neutrophils, Segmented (x10E9/L) | Neutrophils, Segmented/Leukocytes (%) | Platelets (x10E9/L) | Leukocytes (x10E9/L)",1 | 2 | 3 | 4 | 8 | 9 | 10 | 36 | 37 | 39 | 40 | 54 | 59 | 60 | 79 | 84 | 86 | 87 | 5 | 7 | 43 | 44 | 53 | 55 | 63 | 66 | 70 | 71 | 77 | 78 | 80 | 89,35 | 68 | 20 | 14 | 10.26 | 4.998 | 2.42015 | 5.12028 | 101 | 105 | 79.56 | 1.08612 | 3.9 | 2.92218 | 1.16244 | 74 | 141 | 2.40477 | 0.06 | 0.6 | 0.08 | 0.9 | 0.43 | 146 | 1.65 | 17.5 | 4.6 | 7.21 | 76.4 | 333 | 9.45,4 | -1 | 3 | 7 | -1.71 | 0 | -0.0997999999999997 | 0.0775800000000002 | 95 | 1 | 8.84 | 0.18102 | -0.1 | -0.15516 | -5 | 2 | 0.13548 | -0.03 | -0.3 | -0.06 | -0.7 | -6 | -0.24 | -3.6 | -0.899999999999999 | 1.08 | 5.5 | 10 | 0.67,11.4285714285714 | -1.47058823529412 | 15 | 50 | -16.6666666666667 | 0 | -4.12371134020617 | 1.51515151515152 | 94.059405940594 | 0.952380952380952 | 11.1111111111111 | 16.6666666666667 | -2.56410256410257 | -5.30973451327433 | -6.75675675675676 | 1.41843971631206 | 5.6338028169014 | -50 | -75 | -77.7777777777778 | -6.9767441860465 | -4.10958904109589 | -14.5454545454545 | -20.5714285714286 | -13.953488372093 | -19.5652173913043 | 14.9791955617198 | 7.19895287958115 | 3.003003003003 | 7.08994708994709, | NORMAL-NORMAL,5, | NORMAL, | NORMAL,33 | 35 | 6 | 11 | 3.42 | 1.428 | 2.0709 | 4.3962 | 18 | 94 | 44.2 | 0.7241 | 3.4 | 2.2757 | 0.7104 | 61 | 132 | 0.6548 | 0 | 0.39 | 127 | 0.91 | 15.4 | 0.12 | 2.6 | 1.96 | 40.5 | 140 | 3.8,49 | 131 | 43 | 36 | 20.52 | 8.568 | 2.6447 | 7.5253 | 198 | 112 | 114.92 | 1.8361 | 5.4 | 5.2496 | 1.6468 | 84 | 147 | 3.6128 | 0.2 | 2 | 0.57 | 6.8 | 0.54 | 181 | 4.28 | 48.5 | 0.92 | 10.1 | 7.23 | 75 | 400 | 10.7,,,,,Y,,,2014-03-19,2014-03-19 15:03:00,39,67,23,21,0.03,0.3,8.55,4.998,2.32035,,,,,,,,,,,,,,,,,,,,,,,,,,5.19786,196,106,88.4,,,0.02,0.2,,,,,0.4,1.26714,140,,3.8,2.76702,,1.41,13.9,0.37,3.7,,8.29,81.9,1.16244,343,69,143,2.54025,10.12,,,,,,,,,,,,,,,,,,,,,,,,,,,,,,,,,,,,,,,,,,,,,,,,,,,,,,,,,,,,,,,,,,,,,,,,,,,,,,,,,,,,,,,,,,,,,,,,,,,,,,,,,,,,,,,,,,,,,,,,,,,,,,,,,,,,,,,,,,,,,,,,,,,,,,,,,,,,,,,,,,,,,,,,,,,,,,,,,,,,,,,,,,,,,,,,,,,,,,,,,,,,,,,,,,,,,,,,,,,,,,,,,,,,,,,,,,,,,,,,,,,,,,54781532UCO2001,US00920,1.0,Y,2014-10-02T13:40,99004,SAFETY FOLLOW-UP VISIT WEEK 4,12 | 25 | 37 | 49 | 54,Placebo to JNJ-54781532 150 mg QD,6.0,Diastolic Blood Pressure (mmHg) | Heart Rate (BEATS/MIN) | Respiratory Rate (BREATHS/MIN) | Systolic Blood Pressure (mmHg) | Weight (kg),4 | 1 | 2 | 3 | 5,82,,82,18,123,86.6,,,,,,,,,,,,,,,,,,,,,,,,,,,,,,,,,,,,,,,,,,,,,,,,,,,,,,,,,,,,,,,,,,,,,,,,,,
54781532UCO2001-001,PSEUDO,PSEUDO,PSEUDO-PSEUDO,54781532UCO2001,Y,N,Placebo,1,1 | 2 | 3 | 4,RAVE-STUDY-ADVERSE EVENTS/SERIOUS AES-1 | RAVE-STUDY-ADVERSE EVENTS/SERIOUS AES-4 | RAVE-STUDY-ADVERSE EVENTS/SERIOUS AES-2 | RAVE-STUDY-ADVERSE EVENTS/SERIOUS AES-3,ABDOMINAL PAIN | COUGH | KNEE PAIN | UPPER RESPIRATORY INFECTION,Abdominal pain | Cough | Knee pain | Upper respiratory infection,10000081 | 10011224 | 10023477 | 10046300,Abdominal pain | Cough | Arthralgia | Upper respiratory tract infection,10000081 | 10011224 | 10003239 | 10046306,Gastrointestinal and abdominal pains (excl oral and throat) | Coughing and associated symptoms | Joint related signs and symptoms | Upper respiratory tract infections,10017926 | 10011233 | 10023226 | 10046309,Gastrointestinal signs and symptoms | Respiratory disorders NEC | Joint disorders | Infections - pathogen unspecified,10018012 | 10038716 | 10023213 | 10021879,"Gastrointestinal disorders | Respiratory, thoracic and mediastinal disorders | Musculoskeletal and connective tissue disorders | Infections and infestations",10017947 | 10038738 | 10028395 | 10021881,"Gastrointestinal disorders | Respiratory, thoracic and mediastinal disorders | Musculoskeletal and connective tissue disorders | Infections and infestations",10017947 | 10038738 | 10028395 | 10021881,MILD,N,DOSE NOT CHANGED,PROBABLE | POSSIBLE | NOT RELATED,NOT RECOVERED/NOT RESOLVED | RECOVERED/RESOLVED,,,,,,,,,N | Y,DOUBLE BLIND,2014-01-25 | 2014-02-12 | 2014-01-28,2014-01-25 | 2014-02-12 | 2014-01-28,,5 | 23 | 8, | 2014-02-19 | 2014-02-18,5 | 23 | 8,30 | 29,Y,N | Y, | Y,,,,,,0,mg,5 | 23 | 8,Y,Y,1.3951872e+18,1.39524138e+18,1.4004576e+18,,54781532UCO2001,1.0,US00920,Y,N,Placebo,1.0,6-Mercaptopurine | Azathioprine | Balsalazide | Budesonide | Ciprofloxacin | Corticosteroids (Excluding Budesonide) | Cyclosporine | Mesalamine | Methotrexate | Metronidazole | Mycophenolate Mofetil | Olsalazine | Rifaximin | Sirolimus | Sulfasalazine | Tacrolimus,,1 | 2 | 3 | 4 | 5 | 6 | 7 | 8 | 9 | 10 | 11 | 12 | 13 | 14 | 15 | 16,Never Used,Used <= 1 year,Never Used,Used <= 1 year,Never Used,Used > 2 years,Never Used,Used <= 1 year,Never Used,Never Used,Never Used,Never Used,Never Used,Never Used,Never Used,Never Used,,,,,,,,,,,,,,,,,,,,,,,,,,,,,,,,,,,,,,,,,,,,,,,,,,,,,,,,,,,,,,,,,,,,,,,,,,,,,,,,,,,,,,,,,,,,,,,,,,,,,,,,,,,,,,,,,,,,,54781532UCO2001,Y,N,30000 | 30002 | 30004 | 30008 | 30012 | 30016 | 30020 | 30024 | 30028 | 30032 | 99004,WEEK 0 | WEEK 2 | WEEK 4 | WEEK 8 | WEEK 12 | WEEK 16 | WEEK 20 | WEEK 24 | WEEK 28 | WEEK 32 | FINAL SAFETY FOLLOW-UP,Cumulative dose by visits (mg) | Drug Compliance | Duration of follow up (weeks) | Duration of Exposure (weeks),Placebo | Placebo to JNJ-54781532 150 mg QD,1 | 6,0 | 4200 | 4800 | 3750 | 3900 | 3600,Y,8.14285714285714 | 8.71428571428571 | 24.1428571428571,8.14285714285714 | 8.71428571428571 | 24.1428571428571 | 28.1428571428571,,,,,,,,,,,,,,,,,,,,,,,,,,,,,,,,,,,,,,,,,,,,,,,,,,,,,,,,,,,,,,,,,,,,,,,,,,,,,,,,,,,,,,,,,,,,,,,,,,,,,,,,,,,,,,,,,,,,,,,,,,,,,,,,,,,,,,,,,,,,,,,,,,,,,,,,,,,,,,,,,,,,,,,,,,,,,,,,,,,,,,,,,,,,,,,,,,,3.0,2.0,0.0,3.0,3.0,3.0,2.0,3.0,3.0,1.0,3.0,3.0,1.0,3.0,,,Placebo,Y,Y,8.0,N,,,,,,,,,,,,,,,,,,,,,,,,,,54781532UCO2001,US00920,1.0,57.0,YEARS,>= 40 years,2.0,M,USA,North America,1.0,WHITE,Caucasian,1.0,Caucasian,1.0,Y,Y,N,Placebo To JNJ-54781532 150 mg QD,Placebo_to_150mg_QD,Placebo,1.0,Placebo to JNJ-54781532 150 mg QD,6.0,Placebo,1.0,Placebo to JNJ-54781532 150 mg QD,6.0,,1.3902624e+18,1.39031268e+18,1.4097024e+18,,1.3902624e+18,50280.0,1.39031268e+18,1.3951008e+18,67380.0,1.39516818e+18,1.3951872e+18,54180.0,1.39524138e+18,1.4097024e+18,,,1.3951872e+18,58.0,1.4004576e+18,119.0,167.6,84.4,>= 75 kg,2.0,NEVER,3.0,<= 5 years,1.0,LIMITED TO LEFT SIDE OF COLON,Present,11.0,>= 9,2.0,Severe,2.0,557.93,1000000.0,12.8,>= 3 mg/L,2.0,N,Y,N,N,Y,Y,,Y,,,Y,,Y,Y,NOT HISPANIC OR LATINO,1956-05-10 00:00:00,2014-01-21T13:58,,,,21920.0,"WRUBLE, LAWRENCE",,,,54781532UCO2001,2014-03-19 00:00:00,58,1.0,US00920,57.0,YEARS,M,WHITE,NOT HISPANIC OR LATINO,USA,Y,N,N,Y,Y,Placebo,1.0,Randomized to placebo at Week 0 who began treatment with JNJ-54781532 at Week 8,"For analyses through Week 16 (Section 5.4), subjects randomized to placebo atWeek 0 who begin treatment with JNJ-54781532 at Week 8 will also be considered a treatmentfailure from Week 8 onward",Randomized to placebo at Week 0 who began treatment with JNJ-54781532 at Week 8,,,,,,,,,,,,,,,,,,,,,,,,,,,,,,,,,,,,,,,,,,,,,,,,,,,,,,,,,,,,,,,,,,,,,,,,,,,,,,,,,,,,,,,,,,,,
54781532UCO2001-002,SCREENING,10000,10000-SCREENING,,,,,,,,,,,,,,,,,,,,,,,,,,,,,,,,,,,,,,,,,,,,,,,,,,,,,,,,,,,,,,,,,,,,,,,,,,,,,,,,,,,,,,54781532UCO2001,2.0,US10762,31.0,YEARS,< 40 years,1.0,F,USA,North America,1.0,WHITE,Caucasian,1.0,54.0,< 75 kg,1.0,8.0,> 5 years to <= 15 years,2.0,LIMITED TO LEFT SIDE OF COLON,Absent,10.0,>= 9,2.0,Moderate,1.0,1.0,3.0,7.28,>= 3 mg/L,2.0,N,N,N,Y,Y,Y,N,Y,N,Y,N,JNJ-54781532 150 mg QD,4.0,8 | 4 | 7 | 2 | 3 | 1,Partial Mayo Clinical Remission | Physicians Global Assessment | Partial Mayo Score | Rectal Bleeding | Worse Rectal Bleeding | Stool Frequency,22 | 4 | 8 | 2 | 3 | 1,,Derived | ,,Y,,,2013-12-16 00:00:00,-14,Y,2014-02-28,N,N,N,N,,,,,,,,,,,,,,N,3.0,8,2.0,2.0,,,,3.0,,,,,,,,,,,,,,,,,,,,,,,,,,,,,,,,,,,,,,,,,,,,,54781532UCO2001,2.0,Y,N,JNJ-54781532 150 mg QD,4.0,JNJ-54781532 150 mg QD,4.0,1 | 14 | 27 | 40 | 53 | 66 | 79 | 105 | 118 | 130 | 159 | 183 | 196 | 209 | 225 | 238 | 251 | 264 | 277 | 290 | 303 | 316 | 329 | 342 | 355 | 368 | 381 | 394,CHEMISTRY | HEMATOLOGY,33 | 31 | 6 | 9 | 3.42 | 1.428 | 2.07085 | 18 | 94 | 35.36 | 3.4 | 0.71038 | 61 | 132 | 0 | 0.34 | 116 | 0.91 | 15.4 | 0.12 | 2.6 | 1.96 | 40.5 | 140 | 3.8,49 | 106 | 34 | 20.52 | 8.568 | 2.6447 | 169 | 112 | 97.24 | 5.4 | 1.64679 | 84 | 147 | 0.2 | 2 | 0.57 | 6.8 | 0.48 | 164 | 4.28 | 48.5 | 0.92 | 10.1 | 7.23 | 75 | 400 | 10.7,,NORMAL | LOW | HIGH,,,,10000,SCREENING,2013-12-16T11:40,-14,SERUM | ,,ROOM TEMPERATURE,,"SERUM Albumin (g/L) | Alkaline Phosphatase (U/L) | Alanine Aminotransferase (U/L) | Aspartate Aminotransferase (U/L) | Bilirubin (umol/L) | Blood Urea Nitrogen (mmol/L) | Calcium (mmol/L) | Creatine Kinase (U/L) | Chloride (mmol/L) | Creatinine (umol/L) | Potassium (mmol/L) | Phosphate (mmol/L) | Protein (g/L) | Sodium (mmol/L) | Basophils (x10E9/L) | Basophils/Leukocytes (%) | Eosinophils (x10E9/L) | Eosinophils/Leukocytes (%) | Hematocrit (fraction) | Hemoglobin (g/L) | Lymphocytes (x10E9/L) | Lymphocytes/Leukocytes (%) | Monocytes (x10E9/L) | Monocytes/Leukocytes (%) | Neutrophils, Segmented (x10E9/L) | Neutrophils, Segmented/Leukocytes (%) | Platelets (x10E9/L) | Leukocytes (x10E9/L)",1 | 2 | 3 | 4 | 8 | 9 | 10 | 37 | 39 | 40 | 59 | 79 | 84 | 86 | 5 | 7 | 43 | 44 | 53 | 55 | 63 | 66 | 70 | 71 | 77 | 78 | 80 | 89,,,,,,,,33 | 31 | 6 | 9 | 3.42 | 1.428 | 2.0709 | 18 | 94 | 35.36 | 3.4 | 0.7104 | 61 | 132 | 0 | 0.34 | 116 | 0.91 | 15.4 | 0.12 | 2.6 | 1.96 | 40.5 | 140 | 3.8,49 | 106 | 34 | 20.52 | 8.568 | 2.6447 | 169 | 112 | 97.24 | 5.4 | 1.6468 | 84 | 147 | 0.2 | 2 | 0.57 | 6.8 | 0.48 | 164 | 4.28 | 48.5 | 0.92 | 10.1 | 7.23 | 75 | 400 | 10.7,Y,,,,,,Y,2014-02-28,2014-02-28 18:00:00,36,42,15,21,0.08,0.7,,5.712,2.37025,,,,,,,,,,,,,,,,,,,,,,,,,,,106,101,70.72,,,0.15,1.3,,,,,0.38,,124,,3.8,,,2.24,19.1,0.37,3.1,,8.91,75.9,1.19473,558,73,137,,11.74,,<3.42,,,,,,,,,,,,,,,,,,,,,,,,,,,,,,,,,,,,,,,,,,,,,,,,,,,,,,,,,,,,,,,,,,,,,,,,,,,,,,,,,,,,,,,,,,,,,,,,,,,,,,,,,,,,,,,,,,,,,,,,,,,,,,,,,,,,,,,,,,,,,,,,,,,,,,,,,,,,,,,,,,,,,,,,,,,,,,,,,,,,,,,,,,,,,,,,,,,,,,,,,,,,,,,,,,,,,,,,,,,,,,,,,,,,,,,,,,,,,,,,,,,,54781532UCO2001,US10762,2.0,Y,2013-12-16T11:30,10000,SCREENING,1 | 14 | 26 | 38 | 50,JNJ-54781532 150 mg QD,4.0,Diastolic Blood Pressure (mmHg) | Heart Rate (BEATS/MIN) | Respiratory Rate (BREATHS/MIN) | Systolic Blood Pressure (mmHg) | Weight (kg),4 | 1 | 2 | 3 | 5,82,,76,16,116,55.8,,,,,,,,,,,,,,,,,,,,,,,,,,,,,,,,,,,,,,,,,,,,,,,,,,,,,,,,,,,,,,,,,,,,,,,,,,
54781532UCO2001-002,BASELINE,29000,29000-BASELINE,,,,,,,,,,,,,,,,,,,,,,,,,,,,,,,,,,,,,,,,,,,,,,,,,,,,,,,,,,,,,,,,,,,,,,,,,,,,,,,,,,,,,,54781532UCO2001,2.0,US10762,31.0,YEARS,< 40 years,1.0,F,USA,North America,1.0,WHITE,Caucasian,1.0,54.0,< 75 kg,1.0,8.0,> 5 years to <= 15 years,2.0,LIMITED TO LEFT SIDE OF COLON,Absent,10.0,>= 9,2.0,Moderate,1.0,1.0,3.0,7.28,>= 3 mg/L,2.0,N,N,N,Y,Y,Y,N,Y,N,Y,N,JNJ-54781532 150 mg QD,4.0,27 | 29 | 6 | 5 | 19 | 20 | 22 | 21 | 23 | 28 | 17 | 24 | 25 | 26 | 16 | 18 | 14 | 15 | 10 | 11 | 12 | 13 | 9,Calprotectin Score | CRP Score | Endoscopy Central Reading | Endoscopy Local Reading | IBDQ Bowel Dimension | IBDQ Emotional Dimension | IBDQ Social Dimension | IBDQ Systemic Dimension | IBDQ Total | Lactoferrin Score | Mayo Score | Sensitivity Analysis 3 | Sensitivity Analysis 4 | Partial Mayo Clinical Remission | Physicians Global Assessment | Partial Mayo Score | Rectal Bleeding | Worse Rectal Bleeding | Evaluator 1 | Evaluator 2 | Evaluator 3 | Stool Frequency | UCEIS Score,31 | 33 | 6 | 5 | 9 | 10 | 12 | 11 | 13 | 32 | 7 | 15 | 16 | 22 | 4 | 8 | 2 | 3 | 28 | 29 | 30 | 1 | 24,, | Derived,Y,Y,430.8 | 7.28 | 3 | 2 | 35 | 56 | 27 | 16 | 134 | 344039 | 10 | 8 | 7,,2013-12-30 | 2013-12-20,1 | -10,Y,2014-02-28,N,N,N,N,430.8,7.28,3,2.0,35,56,27,16,134,344039,10,10,8,N,2.0,7,2.0,2.0,3,3,3,3.0,8,,,,,,,,,,,,,54781532UCO2001,2.0,Y,N,JNJ-54781532 150 mg QD,4.0,JNJ-54781532 150 mg QD,4.0,1.0,1.0,Interpretation,2013-12-20T09:06,-10.0,10000.0,SCREENING,Y,Y,Y,NORMAL,,,,,,,,,,,,,54781532UCO2001,2.0,Y,N,JNJ-54781532 150 mg QD,4.0,JNJ-54781532 150 mg QD,4.0,2 | 15 | 28 | 41 | 54 | 67 | 80 | 92 | 96 | 100 | 101 | 106 | 119 | 131 | 143 | 144 | 154 | 155 | 160 | 171 | 175 | 179 | 184 | 197 | 210 | 221 | 226 | 239 | 252 | 265 | 278 | 291 | 304 | 317 | 330 | 343 | 356 | 369 | 382 | 395 | 407 | 410 | 413 | 416 | 419 | 422 | 425 | 428 | 431 | 434 | 437 | 440 | 443 | 446 | 449 | 452 | 455 | 458 | 461 | 464 | 467 | 470 | 473 | 476 | 479 | 482 | 485 | 488 | 491 | 492 | 493 | 494 | 495 | 496,CHEMISTRY | HEMATOLOGY | IMMUNOLOGY,33 | 31 | 6 | 9 | 3.42 | 1.428 | 2.07085 | 3.64626 | 18 | 94 | 35.36 | 1.25025 | 0.93096 | 3.4 | 1.8102 | 0 | 0.71038 | 61 | 132 | 0.44031 | 0.34 | 116 | 0.91 | 15.4 | 0.12 | 2.6 | 1.96 | 40.5 | 140 | 3.8 | 0.084 | 5 | 0.08 | 0.723 | 56 | 0.404 | 0.22 | 13,49 | 106 | 34 | 20.52 | 8.568 | 2.6447 | 50 | 6.2064 | 169 | 112 | 97.24 | 1.91705 | 2.87 | 1.99122 | 5.4 | 4.03416 | 7.24 | 1.64679 | 84 | 147 | 1.98704 | 0.2 | 2 | 0.57 | 6.8 | 0.48 | 164 | 4.28 | 48.5 | 0.92 | 10.1 | 7.23 | 75 | 400 | 10.7 | 0.724 | 26 | 0.616 | 22 | 2.737 | 86 | 1.612 | 58 | 1.129 | 39, | NEGATIVE | NON-REACTIVE,NORMAL | LOW | HIGH | ,,,Y | ,30000 | 10000.01 | 10000,WEEK 0 | SCREENING UNSCHEDULED 1 | SCREENING,2013-12-30T09:20 | 2013-12-19T11:00 | 2013-12-16T11:40 | 2013-12-20T09:15,1 | -11 | -14 | -10,SERUM |  | STOOL | BLOOD, | ASSAY YIELDING BY MASS RESULTS | ASSAY YIELDING BY VOLUME RESULTS | HIGH SENSITIVITY ASSAY | CALCULATED | FLOW CYTOMETRY | QUANTIFERON TB,ROOM TEMPERATURE | FROZEN,Y | ,"SERUM Albumin (g/L) | Alkaline Phosphatase (U/L) | Alanine Aminotransferase (U/L) | Aspartate Aminotransferase (U/L) | Bilirubin (umol/L) | Blood Urea Nitrogen (mmol/L) | Calcium (mmol/L) | STOOL Calprotectin (ug/g) | STOOL Calprotectin (ug/L) | STOOL Clostridium difficile Toxin | Cholesterol (mmol/L) | Creatine Kinase (U/L) | Chloride (mmol/L) | Creatinine (umol/L) | Creatinine Clearance (mL/s) | C Reactive Protein (mg/L) | SERUM Choriogonadotropin Beta | HDL Cholesterol (mmol/L) | Potassium (mmol/L) | LDL Cholesterol (mmol/L) | STOOL Lactoferrin (ug/g) | STOOL Lactoferrin (ug/L) | Phosphate (mmol/L) | Protein (g/L) | Sodium (mmol/L) | Triglycerides (mmol/L) | Basophils (x10E9/L) | Basophils/Leukocytes (%) | Eosinophils (x10E9/L) | Eosinophils/Leukocytes (%) | Hematocrit (fraction) | Hemoglobin (g/L) | Lymphocytes (x10E9/L) | Lymphocytes/Leukocytes (%) | Monocytes (x10E9/L) | Monocytes/Leukocytes (%) | Neutrophils, Segmented (x10E9/L) | Neutrophils, Segmented/Leukocytes (%) | Platelets (x10E9/L) | Leukocytes (x10E9/L) | CD16 CD56 (x10E9/L) | CD16 CD56/Lymphocytes (%) | CD19 (x10E9/L) | CD19/Lymphocytes (%) | CD3 (x10E9/L) | CD3/Lymphocytes (%) | CD4 (x10E9/L) | BLOOD CD4 Central Memory T Cells (x10E6/L) | BLOOD CD4 Central Memory T Cells/Total Cells (%) | BLOOD CD4 Effector Memory T Cells (x10E6/L) | BLOOD CD4 Effector Memory T Cells/Total Cells (%) | CD4/Lymphocytes (%) | BLOOD CD4 Naive T Cells (x10E6/L) | BLOOD CD4 Naive T Cells/Total Cells (%) | CD4 Type 1 Helper T Cells/CD4 (%) | CD4 Type 1 Helper T Cells (x10E6/L) | BLOOD CD4 Regulatory T Cells/CD4 (%) | BLOOD CD4 Regulatory T Cells (x10E6/L) | CD8 (x10E9/L) | BLOOD CD8 Central Memory T Cells (x10E6/L) | BLOOD CD8 Central Memory T Cells/Total Cells (%) | BLOOD CD8 Effector Memory T Cells (x10E6/L) | BLOOD CD8 Effector Memory T Cells/Total Cells (%) | CD8/Lymphocytes (%) | BLOOD CD8 Naive T Cells (x10E6/L) | BLOOD CD8 Naive T Cells/Total Cells (%) | BLOOD CD8 Term Diff Eff Mem Cells (x10E6/L) | BLOOD CD8 Term Diff Eff Mem Cells/Total Cells (%) | SERUM Hepatitis B Virus Core Antibody | Hepatitis B Virus Surface Antibody | Hepatitis B Virus Surface Antigen | Hepatitis C Virus Antibody | HIV-1/2 Antibody | M. tuberculosis IFN Gamma Response",1 | 2 | 3 | 4 | 8 | 9 | 10 | 11 | 35 | 36 | 37 | 39 | 40 | 41 | 42 | 52 | 54 | 59 | 60 | 62 | 79 | 84 | 86 | 87 | 5 | 7 | 43 | 44 | 53 | 55 | 63 | 66 | 70 | 71 | 77 | 78 | 80 | 89 | 12 | 13 | 14 | 15 | 16 | 17 | 18 | 19 | 20 | 21 | 22 | 23 | 24 | 25 | 26 | 27 | 28 | 29 | 30 | 31 | 32 | 33 | 34 | 47 | 48 | 49 | 51 | 56 | 74,37 | 42 | 13 | 19 | 7.14 | 2.3952 | 172.32 | 3.93072 | 59 | 102 | 79.56 | 1.38361 | 7.28 | 1.86192 | 4.2 | 1.52574 | 344039 | 1.45305 | 72 | 139 | 1.19674 | 0.06 | 0.5 | 0.24 | 2.2 | 0.36 | 121 | 3.08 | 28.6 | 0.47 | 4.3 | 6.89 | 64.2 | 558 | 10.73 | 0.156 | 4.8 | 0.307 | 9.4 | 2.726 | 83.9 | 1.807 | 103.36 | 5.72 | 72.64 | 4.02 | 55.6 | 1482.1 | 82.02 | 21.81 | 394.11 | 10.7 | 193.35 | 0.879 | 7.91 | 0.9 | 21.98 | 2.5 | 27.1 | 546.83 | 62.21 | 302.29 | 34.39,,,,, | NORMAL | LOW, | NORMAL | LOW,33 | 31 | 6 | 9 | 3.42 | 1.428 | 2.0709 | 3.6463 | 18 | 94 | 35.36 | 1.2503 | 0.931 | 3.4 | 1.8102 | 0 | 0.7104 | 61 | 132 | 0.4403 | 0.34 | 116 | 0.91 | 15.4 | 0.12 | 2.6 | 1.96 | 40.5 | 140 | 3.8 | 0.084 | 5 | 0.08 | 0.723 | 56 | 0.404 | 0.22 | 13,49 | 106 | 34 | 20.52 | 8.568 | 2.6447 | 50 | 6.2064 | 169 | 112 | 97.24 | 1.9171 | 2.87 | 1.9912 | 5.4 | 4.0342 | 7.24 | 1.6468 | 84 | 147 | 1.987 | 0.2 | 2 | 0.57 | 6.8 | 0.48 | 164 | 4.28 | 48.5 | 0.92 | 10.1 | 7.23 | 75 | 400 | 10.7 | 0.724 | 26 | 0.616 | 22 | 2.737 | 86 | 1.612 | 58 | 1.129 | 39,Y,,,,,Y,Y,2014-02-28,2014-02-28 18:00:00,37,42,13,19,0.06,0.5,,7.14,2.3952,430.8 | 172.32,0.156,4.8,0.307,9.4,2.726,83.9,1.807,103.36 | 5.72,72.64 | 4.02,55.6,1482.1,82.02,21.81,394.11,10.7,193.35,0.879,7.91 | 0.9,21.98 | 2.5,27.1,546.83,62.21,302.29 | 34.39,NEGATIVE,3.93072,59,102,79.56,1.38361,7.28,0.24,2.2,NEGATIVE,NEGATIVE,NEGATIVE,NEGATIVE,0.36,1.86192,121,NON-REACTIVE,4.2,1.52574,,3.08,28.6,0.47,4.3,NEGATIVE,6.89,64.2,1.45305,558,72,139,1.19674,10.73,344.04 | 344039,<3.42,NEGATIVE,,,,,,,,,,,,,,,,,,,,,,,,,,,,,,,,,,,,,,,,,,,,,,,,,,,,,,,,,,,,,,,,,,,,,,,,,,,,,,,,,,,,,,,,,,,,,,,,,,,,,,,,,,,,,,,,,,,,,,,,,,,,,,,,,,,,,,,,,,,,,,,,,,,,,,,,,,,,,,,,,,,,,,,,,,,,,,,,,,,,,,,,,,,,,,,,,,,,,,,,,,,,,,,,,,,,,,,,,,,,,,,,,,,,,,,,,,,,,,,,,,,54781532UCO2001,US10762,2.0,Y,2013-12-30T09:10 | 2013-12-16T11:30,30000 | 10000,WEEK 0 | SCREENING,2 | 13 | 15 | 27 | 39 | 51,JNJ-54781532 150 mg QD,4.0,Diastolic Blood Pressure (mmHg) | Height (cm) | Heart Rate (BEATS/MIN) | Respiratory Rate (BREATHS/MIN) | Systolic Blood Pressure (mmHg) | Weight (kg),4 | 6 | 1 | 2 | 3 | 5,90,139.7,73,18,120,54.0,,,,,,,,,,,,,,,,,,,,,,,,,,,,,,,,,,,,,,,,,,,,,,,,,,,,,,,,,,,,,,,,,,,,,,,,,,
54781532UCO2001-002,WEEK 2,30002,30002-WEEK 2,,,,,,,,,,,,,,,,,,,,,,,,,,,,,,,,,,,,,,,,,,,,,,,,,,,,,,,,,,,,,,,,,,,,,,,,,,,,,,,,,,,,,,54781532UCO2001,2.0,US10762,31.0,YEARS,< 40 years,1.0,F,USA,North America,1.0,WHITE,Caucasian,1.0,54.0,< 75 kg,1.0,8.0,> 5 years to <= 15 years,2.0,LIMITED TO LEFT SIDE OF COLON,Absent,10.0,>= 9,2.0,Moderate,1.0,1.0,3.0,7.28,>= 3 mg/L,2.0,N,N,N,Y,Y,Y,N,Y,N,Y,N,JNJ-54781532 150 mg QD,4.0,37 | 35 | 36 | 33 | 34 | 31 | 32 | 30,CRP Score | Partial Mayo Clinical Remission | Partial Mayo Clinical Response | Physicians Global Assessment | Partial Mayo Score | Rectal Bleeding | Worse Rectal Bleeding | Stool Frequency,33 | 22 | 29 | 4 | 8 | 2 | 3 | 1,, | Derived,,Y,7.28 | 2 | 7 | 3,16.02 | 0 | -1,2014-01-13 00:00:00,15,Y,2014-02-28,N,N,N,N,,23.3,,,,,,,,,,,,N,2.0,6,1.0,1.0,,,,3.0,,N,,,,,,,,,,,,,,,,,,,,,,,,,,,,,,,,,,,,,,,,,,,54781532UCO2001,2.0,Y,N,JNJ-54781532 150 mg QD,4.0,JNJ-54781532 150 mg QD,4.0,3 | 16 | 29 | 42 | 55 | 68 | 81 | 107 | 120 | 132 | 145 | 161 | 185 | 198 | 211 | 227 | 240 | 253 | 266 | 279 | 292 | 305 | 318 | 331 | 344 | 357 | 370 | 383 | 396,CHEMISTRY | HEMATOLOGY,33 | 31 | 6 | 9 | 3.42 | 1.428 | 2.07085 | 18 | 94 | 35.36 | 3.4 | 0.71038 | 61 | 132 | 0 | 0.34 | 116 | 0.91 | 15.4 | 0.12 | 2.6 | 1.96 | 40.5 | 140 | 3.8,49 | 106 | 34 | 20.52 | 8.568 | 2.6447 | 169 | 112 | 97.24 | 2.87 | 5.4 | 1.64679 | 84 | 147 | 0.2 | 2 | 0.57 | 6.8 | 0.48 | 164 | 4.28 | 48.5 | 0.92 | 10.1 | 7.23 | 75 | 400 | 10.7,,NORMAL | LOW | HIGH,,1,,30002,WEEK 2,2014-01-13T09:32,15,SERUM | , | HIGH SENSITIVITY ASSAY,ROOM TEMPERATURE,,"SERUM Albumin (g/L) | Alkaline Phosphatase (U/L) | Alanine Aminotransferase (U/L) | Aspartate Aminotransferase (U/L) | Bilirubin (umol/L) | Blood Urea Nitrogen (mmol/L) | Calcium (mmol/L) | Creatine Kinase (U/L) | Chloride (mmol/L) | Creatinine (umol/L) | C Reactive Protein (mg/L) | Potassium (mmol/L) | Phosphate (mmol/L) | Protein (g/L) | Sodium (mmol/L) | Basophils (x10E9/L) | Basophils/Leukocytes (%) | Eosinophils (x10E9/L) | Eosinophils/Leukocytes (%) | Hematocrit (fraction) | Hemoglobin (g/L) | Lymphocytes (x10E9/L) | Lymphocytes/Leukocytes (%) | Monocytes (x10E9/L) | Monocytes/Leukocytes (%) | Neutrophils, Segmented (x10E9/L) | Neutrophils, Segmented/Leukocytes (%) | Platelets (x10E9/L) | Leukocytes (x10E9/L)",1 | 2 | 3 | 4 | 8 | 9 | 10 | 37 | 39 | 40 | 42 | 59 | 79 | 84 | 86 | 5 | 7 | 43 | 44 | 53 | 55 | 63 | 66 | 70 | 71 | 77 | 78 | 80 | 89,37 | 42 | 13 | 19 | 7.14 | 2.3952 | 59 | 102 | 79.56 | 7.28 | 4.2 | 1.45305 | 72 | 139 | 0.06 | 0.5 | 0.24 | 2.2 | 0.36 | 121 | 3.08 | 28.6 | 0.47 | 4.3 | 6.89 | 64.2 | 558 | 10.73,-3 | 4 | 2 | -2 | -0.357 | 0 | 30 | -1 | 16.02 | 0.399999999999999 | -0.0645800000000001 | -4 | -0.03 | -0.2 | 0.03 | 0.8 | -7 | -0.14 | 4.2 | -0.6 | -1.51 | -4.1 | -26 | -1.78,-8.10810810810811 | 9.52380952380952 | 15.3846153846154 | -10.5263157894737 | -5 | 0 | 50.8474576271186 | -0.980392156862745 | 220.054945054945 | 9.52380952380951 | -4.44444444444445 | -5.55555555555556 | -2.15827338129496 | -50 | -40 | 12.5 | 36.3636363636364 | -5.78512396694215 | -4.54545454545455 | 14.6853146853147 | -29.7872340425532 | -13.953488372093 | -21.9158200290276 | -6.38629283489097 | -4.6594982078853 | -16.5890027958994,,,,,33 | 31 | 6 | 9 | 3.42 | 1.428 | 2.0709 | 18 | 94 | 35.36 | 3.4 | 0.7104 | 61 | 132 | 0 | 0.34 | 116 | 0.91 | 15.4 | 0.12 | 2.6 | 1.96 | 40.5 | 140 | 3.8,49 | 106 | 34 | 20.52 | 8.568 | 2.6447 | 169 | 112 | 97.24 | 2.87 | 5.4 | 1.6468 | 84 | 147 | 0.2 | 2 | 0.57 | 6.8 | 0.48 | 164 | 4.28 | 48.5 | 0.92 | 10.1 | 7.23 | 75 | 400 | 10.7,Y,,,,Y,,Y,2014-02-28,2014-02-28 18:00:00,34,46,15,17,0.03,0.3,,6.783,2.3952,,,,,,,,,,,,,,,,,,,,,,,,,,,89,101,79.56,,23.3,0.27,3,,,,,0.36,,114,,4.6,,,2.94,32.8,0.33,3.7,,5.38,60.1,1.38847,532,68,136,,8.95,,<3.42,,,,,,,,,,,,,,,,,,,,,,,,,,,,,,,,,,,,,,,,,,,,,,,,,,,,,,,,,,,,,,,,,,,,,,,,,,,,,,,,,,,,,,,,,,,,,,,,,,,,,,,54781532UCO2001,PC,1 | 3 | 4 | 2,JNJ-54781532,ng/mL,PLASMA,2014-01-13,2014-01-13 09:32:00 | 2014-01-13 10:06:00 | 2014-01-13 10:36:00 | 2014-01-13 12:36:00,34320 | 36360 | 38160 | 45360,15.0,PREDOSE | 30min | 1h | 3h,-0.001 | 0.5 | 1 | 3,Y,,Y,31.0,USA,WHITE,F,JNJ-54781532 150 mg QD,4.0,JNJ-54781532 150 mg QD,4.0,,2.5 | 42.4 | 154 | 36,,,,,,,,,,,,,,,,,,,,,,,,,,,,,,,,,,,,,,,,,,,,,,,,,,,,,,,,,,,,,,,,,,,,,,,,,,,,,,,,,,,,,,,,,,,,,,,,,,,,,,,,,,,,,,,,,,,,,54781532UCO2001,US10762,2.0,Y,2014-01-13T09:28,30002,WEEK 2,3 | 16 | 28 | 40,JNJ-54781532 150 mg QD,4.0,Diastolic Blood Pressure (mmHg) | Heart Rate (BEATS/MIN) | Respiratory Rate (BREATHS/MIN) | Systolic Blood Pressure (mmHg),4 | 1 | 2 | 3,81,,77,16,113,,,,,,,,,,,,,,,,,,,,,,,,,,,,,,,,,,,,,,,,,,,,,,,,,,,,,,,,,,,,,,,,,,,,,,,,,,,
54781532UCO2001-002,WEEK 4,30004,30004-WEEK 4,,,,,,,,,,,,,,,,,,,,,,,,,,,,,,,,,,,,,,,,,,,,,,,,,,,,,,,,,,,,,,,,,,,,,,,,,,,,,,,,,,,,,,54781532UCO2001,2.0,US10762,31.0,YEARS,< 40 years,1.0,F,USA,North America,1.0,WHITE,Caucasian,1.0,54.0,< 75 kg,1.0,8.0,> 5 years to <= 15 years,2.0,LIMITED TO LEFT SIDE OF COLON,Absent,10.0,>= 9,2.0,Moderate,1.0,1.0,3.0,7.28,>= 3 mg/L,2.0,N,N,N,Y,Y,Y,N,Y,N,Y,N,JNJ-54781532 150 mg QD,4.0,45 | 43 | 44 | 41 | 42 | 39 | 40 | 38,CRP Score | Partial Mayo Clinical Remission | Partial Mayo Clinical Response | Physicians Global Assessment | Partial Mayo Score | Rectal Bleeding | Worse Rectal Bleeding | Stool Frequency,33 | 22 | 29 | 4 | 8 | 2 | 3 | 1,, | Derived,,Y,7.28 | 2 | 7 | 3,31.32 | 0 | -1,2014-01-31 00:00:00,33,Y,2014-02-28,N,N,N,N,,38.6,,,,,,,,,,,,N,2.0,6,1.0,2.0,,,,3.0,,N,,,,,,,,,,,,,,,,,,,,,,,,,,,,,,,,,,,,,,,,,,,54781532UCO2001,2.0,Y,N,JNJ-54781532 150 mg QD,4.0,JNJ-54781532 150 mg QD,4.0,4 | 17 | 30 | 43 | 56 | 69 | 82 | 108 | 121 | 133 | 146 | 162 | 186 | 199 | 212 | 228 | 241 | 254 | 267 | 280 | 293 | 306 | 319 | 332 | 345 | 358 | 371 | 384 | 397,CHEMISTRY | HEMATOLOGY,33 | 31 | 6 | 9 | 3.42 | 1.428 | 2.07085 | 18 | 94 | 35.36 | 3.4 | 0.71038 | 61 | 132 | 0 | 0.34 | 116 | 0.91 | 15.4 | 0.12 | 2.6 | 1.96 | 40.5 | 140 | 3.8,49 | 106 | 34 | 20.52 | 8.568 | 2.6447 | 169 | 112 | 97.24 | 2.87 | 5.4 | 1.64679 | 84 | 147 | 0.2 | 2 | 0.57 | 6.8 | 0.48 | 164 | 4.28 | 48.5 | 0.92 | 10.1 | 7.23 | 75 | 400 | 10.7,,LOW | NORMAL | HIGH,,2,,30004,WEEK 4,2014-01-31T10:30,33,SERUM | , | HIGH SENSITIVITY ASSAY,ROOM TEMPERATURE,,"SERUM Albumin (g/L) | Alkaline Phosphatase (U/L) | Alanine Aminotransferase (U/L) | Aspartate Aminotransferase (U/L) | Bilirubin (umol/L) | Blood Urea Nitrogen (mmol/L) | Calcium (mmol/L) | Creatine Kinase (U/L) | Chloride (mmol/L) | Creatinine (umol/L) | C Reactive Protein (mg/L) | Potassium (mmol/L) | Phosphate (mmol/L) | Protein (g/L) | Sodium (mmol/L) | Basophils (x10E9/L) | Basophils/Leukocytes (%) | Eosinophils (x10E9/L) | Eosinophils/Leukocytes (%) | Hematocrit (fraction) | Hemoglobin (g/L) | Lymphocytes (x10E9/L) | Lymphocytes/Leukocytes (%) | Monocytes (x10E9/L) | Monocytes/Leukocytes (%) | Neutrophils, Segmented (x10E9/L) | Neutrophils, Segmented/Leukocytes (%) | Platelets (x10E9/L) | Leukocytes (x10E9/L)",1 | 2 | 3 | 4 | 8 | 9 | 10 | 37 | 39 | 40 | 42 | 59 | 79 | 84 | 86 | 5 | 7 | 43 | 44 | 53 | 55 | 63 | 66 | 70 | 71 | 77 | 78 | 80 | 89,37 | 42 | 13 | 19 | 7.14 | 2.3952 | 59 | 102 | 79.56 | 7.28 | 4.2 | 1.45305 | 72 | 139 | 0.06 | 0.5 | 0.24 | 2.2 | 0.36 | 121 | 3.08 | 28.6 | 0.47 | 4.3 | 6.89 | 64.2 | 558 | 10.73,-8 | 12 | -2 | -3 | -2.142 | -0.17465 | 35 | 2 | -8.83999999999999 | 31.32 | 0.0999999999999996 | -0.19374 | -10 | 1 | 0.01 | 0.1 | -0.05 | -0.7 | -0.07 | -26 | 0.11 | -3.7 | 0.0900000000000001 | 0.100000000000001 | 1.9 | 4.5 | 54 | 2.07,-21.6216216216216 | 28.5714285714286 | -15.3846153846154 | -15.7894736842105 | -30 | -7.29166666666666 | 59.3220338983051 | 1.96078431372549 | -11.1111111111111 | 430.21978021978 | 2.38095238095237 | -13.3333333333333 | -13.8888888888889 | 0.719424460431655 | 16.6666666666667 | 20 | -20.8333333333333 | -31.8181818181818 | -19.4444444444444 | -21.4876033057851 | 3.57142857142857 | -12.9370629370629 | 19.1489361702128 | 2.32558139534885 | 27.5761973875181 | 7.00934579439252 | 9.67741935483871 | 19.2917054986021,,,,,33 | 31 | 6 | 9 | 3.42 | 1.428 | 2.0709 | 18 | 94 | 35.36 | 3.4 | 0.7104 | 61 | 132 | 0 | 0.34 | 116 | 0.91 | 15.4 | 0.12 | 2.6 | 1.96 | 40.5 | 140 | 3.8,49 | 106 | 34 | 20.52 | 8.568 | 2.6447 | 169 | 112 | 97.24 | 2.87 | 5.4 | 1.6468 | 84 | 147 | 0.2 | 2 | 0.57 | 6.8 | 0.48 | 164 | 4.28 | 48.5 | 0.92 | 10.1 | 7.23 | 75 | 400 | 10.7,Y,Y | ,Y | ,Y | ,Y,,Y,2014-02-28,2014-02-28 18:00:00,29,54,11,16,0.07,0.6,,4.998,2.22055,,,,,,,,,,,,,,,,,,,,,,,,,,,94,104,70.72,,38.6,0.19,1.5,,,,,0.29,,95,,4.3,,,3.19,24.9,0.56,4.4,,8.79,68.7,1.25931,612,62,140,,12.8,,<3.42,,,,,,,,,,,,,,,,,,,,,,,,,,,,,,,,,,,,,,,,,,,,,,,,,,,,,,,,,,,,,,,,,,,,,,,,,,,,,,,,,,,,,,,,,,,,,,,,,,,,,,,54781532UCO2001,PC,5,JNJ-54781532,ng/mL,PLASMA,2014-01-31,2014-01-31 10:30:00,37800,33.0,PREDOSE,-0.001,Y,,Y,31.0,USA,WHITE,F,JNJ-54781532 150 mg QD,4.0,JNJ-54781532 150 mg QD,4.0,,17.7,,,,,,,,,,,,,,,,,,,,,,,,,,,,,,,,,,,,,,,,,,,,,,,,,,,,,,,,,,,,,,,,,,,,,,,,,,,,,,,,,,,,,,,,,,,,,,,,,,,,,,,,,,,,,,,,,,,,,54781532UCO2001,US10762,2.0,Y,2014-01-31T10:10,30004,WEEK 4,4 | 17 | 29 | 41,JNJ-54781532 150 mg QD,4.0,Diastolic Blood Pressure (mmHg) | Heart Rate (BEATS/MIN) | Respiratory Rate (BREATHS/MIN) | Systolic Blood Pressure (mmHg),4 | 1 | 2 | 3,69,,70,17,106,,,,,,,,,,,,,,,,,,,,,,,,,,,,,,,,,,,,,,,,,,,,,,,,,,,,,,,,,,,,,,,,,,,,,,,,,,,
54781532UCO2001-002,WEEK 8,30008,30008-WEEK 8,,,,,,,,,,,,,,,,,,,,,,,,,,,,,,,,,,,,,,,,,,,,,,,,,,,,,,,,,,,,,,,,,,,,,,,,,,,,,,,,,,,,,,54781532UCO2001,2.0,US10762,31.0,YEARS,< 40 years,1.0,F,USA,North America,1.0,WHITE,Caucasian,1.0,54.0,< 75 kg,1.0,8.0,> 5 years to <= 15 years,2.0,LIMITED TO LEFT SIDE OF COLON,Absent,10.0,>= 9,2.0,Moderate,1.0,1.0,3.0,7.28,>= 3 mg/L,2.0,N,N,N,Y,Y,Y,N,Y,N,Y,N,JNJ-54781532 150 mg QD,4.0,73 | 65 | 66 | 63 | 64 | 76 | 75 | 51 | 50 | 54 | 55 | 57 | 56 | 58 | 74 | 52 | 59 | 69 | 70 | 60 | 61 | 62 | 67 | 71 | 49 | 53 | 47 | 48 | 72 | 46 | 68,Calprotectin Score | Clinical Remission | Clinical Remission by Local Reader | Clinical Response | Clinical Response by Local Reader | Clinical Remission with Local Reader | CRP Score | Endoscopy Central Reading | Endoscopy Local Reading | IBDQ Bowel Dimension | IBDQ Emotional Dimension | IBDQ Social Dimension | IBDQ Systemic Dimension | IBDQ Total | Lactoferrin Score | Mayo Score | Number of Missing Subscores | Mucosal Healing | Mucosal Healing by Local Reader | Sensitivity Analysis 1 | Sensitivity Analysis 3 | Sensitivity Analysis 4 | Partial Mayo Clinical Remission | Partial Mayo Clinical Response | Physicians Global Assessment | Partial Mayo Score | Rectal Bleeding | Worse Rectal Bleeding | Evaluator 2 | Stool Frequency | UCEIS Score,31 | 20 | 21 | 17 | 18 | 34 | 33 | 6 | 5 | 9 | 10 | 12 | 11 | 13 | 32 | 7 | 26 | 27 | 14 | 15 | 16 | 22 | 29 | 4 | 8 | 2 | 3 | 1 | 24,, | Derived,,Y,430.8 | 7.28 | 3 | 2 | 35 | 56 | 27 | 16 | 134 | 344039 | 10 | 8 | 7,-260.5 | 12.72 | 0 | 1 | 3 | 2 | -1 | 5 | -338759.1,2014-02-28 00:00:00,61,Y | ,2014-02-28,N,N,N,N,170.3,20,3,3.0,38,58,26,17,139,5279.9,9,9,7,N,2.0,6,1.0,1.0,,3,,3.0,8,N,N,N,N,N,N,0.0,N,N,9,,,54781532UCO2001,2.0,Y,N,JNJ-54781532 150 mg QD,4.0,JNJ-54781532 150 mg QD,4.0,2.0,1.0,Interpretation,2014-02-28T12:39,61.0,30008.0,WEEK 8,,,Y,ABNORMAL,,,,,,,,,,,,,54781532UCO2001,2.0,Y,N,JNJ-54781532 150 mg QD,4.0,JNJ-54781532 150 mg QD,4.0,5 | 18 | 31 | 44 | 57 | 70 | 83 | 93 | 97 | 102 | 109 | 122 | 134 | 147 | 156 | 163 | 172 | 176 | 180 | 187 | 200 | 213 | 222 | 229 | 242 | 255 | 268 | 281 | 294 | 307 | 320 | 333 | 346 | 359 | 372 | 385 | 398 | 408 | 411 | 414 | 417 | 420 | 423 | 426 | 429 | 432 | 435 | 438 | 441 | 444 | 447 | 450 | 453 | 456 | 459 | 462 | 465 | 468 | 471 | 474 | 477 | 480 | 483 | 486 | 489,CHEMISTRY | HEMATOLOGY | IMMUNOLOGY,33 | 31 | 6 | 9 | 3.42 | 1.428 | 2.07085 | 3.64626 | 18 | 94 | 35.36 | 0.93096 | 3.4 | 1.8102 | 0 | 0.71038 | 61 | 132 | 0.44031 | 0.34 | 116 | 0.91 | 15.4 | 0.12 | 2.6 | 1.96 | 40.5 | 140 | 3.8 | 0.084 | 5 | 0.08 | 0.723 | 56 | 0.404 | 0.22 | 13,49 | 106 | 34 | 20.52 | 8.568 | 2.6447 | 50 | 6.2064 | 169 | 112 | 97.24 | 2.87 | 1.99122 | 5.4 | 4.03416 | 7.24 | 1.64679 | 84 | 147 | 1.98704 | 0.2 | 2 | 0.57 | 6.8 | 0.48 | 164 | 4.28 | 48.5 | 0.92 | 10.1 | 7.23 | 75 | 400 | 10.7 | 0.724 | 26 | 0.616 | 22 | 2.737 | 86 | 1.612 | 58 | 1.129 | 39,,NORMAL | HIGH |  | LOW,,2,,30008,WEEK 8,2014-02-28T12:45,61,SERUM |  | STOOL | BLOOD, | ASSAY YIELDING BY MASS RESULTS | ASSAY YIELDING BY VOLUME RESULTS | HIGH SENSITIVITY ASSAY | CALCULATED | FLOW CYTOMETRY,ROOM TEMPERATURE | FROZEN,Y,"SERUM Albumin (g/L) | Alkaline Phosphatase (U/L) | Alanine Aminotransferase (U/L) | Aspartate Aminotransferase (U/L) | Bilirubin (umol/L) | Blood Urea Nitrogen (mmol/L) | Calcium (mmol/L) | STOOL Calprotectin (ug/g) | STOOL Calprotectin (ug/L) | Cholesterol (mmol/L) | Creatine Kinase (U/L) | Chloride (mmol/L) | Creatinine (umol/L) | C Reactive Protein (mg/L) | HDL Cholesterol (mmol/L) | Potassium (mmol/L) | LDL Cholesterol (mmol/L) | STOOL Lactoferrin (ug/g) | STOOL Lactoferrin (ug/L) | Phosphate (mmol/L) | Protein (g/L) | Sodium (mmol/L) | Triglycerides (mmol/L) | Basophils (x10E9/L) | Basophils/Leukocytes (%) | Eosinophils (x10E9/L) | Eosinophils/Leukocytes (%) | Hematocrit (fraction) | Hemoglobin (g/L) | Lymphocytes (x10E9/L) | Lymphocytes/Leukocytes (%) | Monocytes (x10E9/L) | Monocytes/Leukocytes (%) | Neutrophils, Segmented (x10E9/L) | Neutrophils, Segmented/Leukocytes (%) | Platelets (x10E9/L) | Leukocytes (x10E9/L) | CD16 CD56 (x10E9/L) | CD16 CD56/Lymphocytes (%) | CD19 (x10E9/L) | CD19/Lymphocytes (%) | CD3 (x10E9/L) | CD3/Lymphocytes (%) | CD4 (x10E9/L) | BLOOD CD4 Central Memory T Cells (x10E6/L) | BLOOD CD4 Central Memory T Cells/Total Cells (%) | BLOOD CD4 Effector Memory T Cells (x10E6/L) | BLOOD CD4 Effector Memory T Cells/Total Cells (%) | CD4/Lymphocytes (%) | BLOOD CD4 Naive T Cells (x10E6/L) | BLOOD CD4 Naive T Cells/Total Cells (%) | CD4 Type 1 Helper T Cells/CD4 (%) | CD4 Type 1 Helper T Cells (x10E6/L) | BLOOD CD4 Regulatory T Cells/CD4 (%) | BLOOD CD4 Regulatory T Cells (x10E6/L) | CD8 (x10E9/L) | BLOOD CD8 Central Memory T Cells (x10E6/L) | BLOOD CD8 Central Memory T Cells/Total Cells (%) | BLOOD CD8 Effector Memory T Cells (x10E6/L) | BLOOD CD8 Effector Memory T Cells/Total Cells (%) | CD8/Lymphocytes (%) | BLOOD CD8 Naive T Cells (x10E6/L) | BLOOD CD8 Naive T Cells/Total Cells (%) | BLOOD CD8 Term Diff Eff Mem Cells (x10E6/L) | BLOOD CD8 Term Diff Eff Mem Cells/Total Cells (%)",1 | 2 | 3 | 4 | 8 | 9 | 10 | 11 | 36 | 37 | 39 | 40 | 42 | 54 | 59 | 60 | 62 | 79 | 84 | 86 | 87 | 5 | 7 | 43 | 44 | 53 | 55 | 63 | 66 | 70 | 71 | 77 | 78 | 80 | 89 | 12 | 13 | 14 | 15 | 16 | 17 | 18 | 19 | 20 | 21 | 22 | 23 | 24 | 25 | 26 | 27 | 28 | 29 | 30 | 31 | 32 | 33 | 34,37 | 42 | 13 | 19 | 7.14 | 2.3952 | 172.32 | 3.93072 | 59 | 102 | 79.56 | 7.28 | 1.86192 | 4.2 | 1.52574 | 344039 | 1.45305 | 72 | 139 | 1.19674 | 0.06 | 0.5 | 0.24 | 2.2 | 0.36 | 121 | 3.08 | 28.6 | 0.47 | 4.3 | 6.89 | 64.2 | 558 | 10.73 | 0.156 | 4.8 | 0.307 | 9.4 | 2.726 | 83.9 | 1.807 | 103.36 | 5.72 | 72.64 | 4.02 | 55.6 | 1482.1 | 82.02 | 21.81 | 394.11 | 10.7 | 193.35 | 0.879 | 7.91 | 0.9 | 21.98 | 2.5 | 27.1 | 546.83 | 62.21 | 302.29 | 34.39,-3 | 18 | -1 | 1 | -3.213 | -0.0748499999999996 | -2.01999999999998 | -104.2 | 0.18102 | 46 | -8.83999999999999 | 12.72 | 0.20688 | 0.0999999999999996 | 0 | -344033.72 | -338759.1 | -0.0645800000000001 | -0.09032 | -0.03 | -0.1 | -0.05 | -0.06 | -22 | -1.95 | -9.8 | -0.16 | 0.9 | -2.53 | 8.3 | -21 | -4.72 | -0.128 | -2.9 | -0.132 | 2.8 | -1.524 | -0.5 | -0.955 | -51.98 | 0.31 | -41.29 | -0.339999999999999 | 3.6 | -753.81 | 3.46000000000001 | -4.74 | -248.67 | -1.45 | -114.54 | -0.532 | -3.36 | 0.41 | -14.66 | -0.39 | -260.45 | 20.32 | -253.54 | -20.34,-8.10810810810811 | 42.8571428571429 | -7.69230769230769 | 5.26315789473684 | -45 | -3.12499999999998 | -1.17223769730732 | -60.4688950789229 | 4.60526315789474 | 77.9661016949153 | -0.980392156862745 | -11.1111111111111 | 174.725274725275 | 11.1111111111111 | 2.38095238095237 | 0 | -99.9984652902723 | -98.4653193387959 | -4.44444444444445 | -4.16666666666667 | -0.719424460431655 | -7.54716981132075 | -50 | -20 | -20.8333333333333 | 45.4545454545455 | -16.6666666666667 | -18.1818181818182 | -63.3116883116883 | -34.2657342657343 | -34.0425531914894 | 20.9302325581395 | -36.7198838896952 | 12.9283489096573 | -3.76344086021505 | -43.9888164026095 | -82.051282051282 | -60.4166666666667 | -42.9967426710098 | 29.7872340425532 | -55.9060895084373 | -0.595947556615018 | -52.8500276701715 | -50.2902476780186 | 5.41958041958043 | -56.8419603524229 | -8.45771144278606 | 6.47482014388489 | -50.8609405573173 | 4.2184832967569 | -21.7331499312242 | -63.0965973966659 | -13.5514018691589 | -59.2397207137316 | -60.5233219567691 | -42.4778761061947 | 45.5555555555556 | -66.6969972702457 | -15.6 | -11.070110701107 | -47.6290620485343 | 32.663558913358 | -83.8731019881571 | -59.1451003198604, | NORMAL-NORMAL | NORMAL-HIGH | LOW-LOW,5 | 6 | 1, | NORMAL | LOW, | NORMAL | HIGH | LOW,33 | 31 | 6 | 9 | 3.42 | 1.428 | 2.0709 | 3.6463 | 18 | 94 | 35.36 | 0.931 | 3.4 | 1.8102 | 0 | 0.7104 | 61 | 132 | 0.4403 | 0.34 | 116 | 0.91 | 15.4 | 0.12 | 2.6 | 1.96 | 40.5 | 140 | 3.8 | 0.084 | 5 | 0.08 | 0.723 | 56 | 0.404 | 0.22 | 13,49 | 106 | 34 | 20.52 | 8.568 | 2.6447 | 50 | 6.2064 | 169 | 112 | 97.24 | 2.87 | 1.9912 | 5.4 | 4.0342 | 7.24 | 1.6468 | 84 | 147 | 1.987 | 0.2 | 2 | 0.57 | 6.8 | 0.48 | 164 | 4.28 | 48.5 | 0.92 | 10.1 | 7.23 | 75 | 400 | 10.7 | 0.724 | 26 | 0.616 | 22 | 2.737 | 86 | 1.612 | 58 | 1.129 | 39,Y | ,,,,Y,,Y,2014-02-28,2014-02-28 18:00:00,34,60,12,20,0.03,0.4,5.13,3.927,2.32035,170.3 | 68.12,0.028,1.9,0.175,12.2,1.202,83.4,0.852,51.38 | 6.03,31.35 | 3.68,59.2,728.29,85.48,17.07,145.44,9.25,78.81,0.347,4.55 | 1.31,7.32 | 2.11,24.1,286.38,82.53,48.75 | 14.05,,4.11174,105,101,70.72,,20,0.19,3.2,,,,,0.3,2.0688,99,,4.3,1.52574,,1.13,18.8,0.31,5.2,,4.36,72.5,1.38847,537,69,138,1.10642,6.01,5.28 | 5279.9,,,,,,,,,,,,,,,,,,,,,,,,,,,,,,,,,,,,,,,,,,,,,,,,,,,,,,,,,,,,,,,,,,,,,,,,,,,,,,,,,,,,,,,,,,,,,,,,,,,,,,,,54781532UCO2001,PC,6,JNJ-54781532,ng/mL,PLASMA,2014-02-28,2014-02-28 12:45:00,45900,61.0,PREDOSE,-0.001,Y,,Y,31.0,USA,WHITE,F,JNJ-54781532 150 mg QD,4.0,JNJ-54781532 150 mg QD,4.0,,0.443,,,,,,,,,,,,,,,,,,,,,,,,,,,,,,,,,,,,,,,,,,,,,,,,,,,,,,,,,,,,,,,,,,,,,,,,,,,,,,,,,,,,,,,,,,,,,,,,,,,,,,,,,,,,,,,,,,,,,54781532UCO2001,US10762,2.0,Y,2014-02-28T12:44,30008,WEEK 8,5 | 18 | 30 | 42 | 52,JNJ-54781532 150 mg QD,4.0,Diastolic Blood Pressure (mmHg) | Heart Rate (BEATS/MIN) | Respiratory Rate (BREATHS/MIN) | Systolic Blood Pressure (mmHg) | Weight (kg),4 | 1 | 2 | 3 | 5,80,,83,16,119,52.2,,,,,,,,,,,,,,,,,,,,,,,,,,,,,,,,,,,,,,,,,,,,,,,,,,,,,,,,,,,,,,,,,,,,,,,,,,
54781532UCO2001-002,WEEK 12,30012,30012-WEEK 12,,,,,,,,,,,,,,,,,,,,,,,,,,,,,,,,,,,,,,,,,,,,,,,,,,,,,,,,,,,,,,,,,,,,,,,,,,,,,,,,,,,,,,54781532UCO2001,2.0,US10762,31.0,YEARS,< 40 years,1.0,F,USA,North America,1.0,WHITE,Caucasian,1.0,54.0,< 75 kg,1.0,8.0,> 5 years to <= 15 years,2.0,LIMITED TO LEFT SIDE OF COLON,Absent,10.0,>= 9,2.0,Moderate,1.0,1.0,3.0,7.28,>= 3 mg/L,2.0,N,N,N,Y,Y,Y,N,Y,N,Y,N,JNJ-54781532 150 mg QD,4.0,84 | 82 | 83 | 80 | 81 | 78 | 79 | 77,CRP Score | Partial Mayo Clinical Remission | Partial Mayo Clinical Response | Physicians Global Assessment | Partial Mayo Score | Rectal Bleeding | Worse Rectal Bleeding | Stool Frequency,33 | 22 | 29 | 4 | 8 | 2 | 3 | 1,, | Derived,,Y,7.28 | 2 | 7 | 3,-2.1 | 0 | -1,2014-03-27 00:00:00,88,,2014-02-28,N,N,N,N,,5.18,,,,,,,,,,,,N,2.0,6,1.0,2.0,,,,3.0,,N,,,,,,,,,,,,,,,,,,,,,,,,,,,,,,,,,,,,,,,,,,,54781532UCO2001,2.0,Y,N,JNJ-54781532 150 mg QD,4.0,JNJ-54781532 150 mg QD,4.0,6 | 19 | 32 | 45 | 58 | 71 | 84 | 110 | 123 | 135 | 148 | 164 | 188 | 201 | 214 | 230 | 243 | 256 | 269 | 282 | 295 | 308 | 321 | 334 | 347 | 360 | 373 | 386 | 399,CHEMISTRY | HEMATOLOGY,33 | 31 | 6 | 9 | 3.42 | 1.428 | 2.07085 | 18 | 94 | 35.36 | 3.4 | 0.71038 | 61 | 132 | 0 | 0.34 | 116 | 0.91 | 15.4 | 0.12 | 2.6 | 1.96 | 40.5 | 140 | 3.8,49 | 106 | 34 | 20.52 | 8.568 | 2.6447 | 169 | 112 | 97.24 | 2.87 | 5.4 | 1.64679 | 84 | 147 | 0.2 | 2 | 0.57 | 6.8 | 0.48 | 164 | 4.28 | 48.5 | 0.92 | 10.1 | 7.23 | 75 | 400 | 10.7,,NORMAL | LOW | HIGH,,2,,30012,WEEK 12,2014-03-27T11:09,88,SERUM | , | HIGH SENSITIVITY ASSAY,ROOM TEMPERATURE,,"SERUM Albumin (g/L) | Alkaline Phosphatase (U/L) | Alanine Aminotransferase (U/L) | Aspartate Aminotransferase (U/L) | Bilirubin (umol/L) | Blood Urea Nitrogen (mmol/L) | Calcium (mmol/L) | Creatine Kinase (U/L) | Chloride (mmol/L) | Creatinine (umol/L) | C Reactive Protein (mg/L) | Potassium (mmol/L) | Phosphate (mmol/L) | Protein (g/L) | Sodium (mmol/L) | Basophils (x10E9/L) | Basophils/Leukocytes (%) | Eosinophils (x10E9/L) | Eosinophils/Leukocytes (%) | Hematocrit (fraction) | Hemoglobin (g/L) | Lymphocytes (x10E9/L) | Lymphocytes/Leukocytes (%) | Monocytes (x10E9/L) | Monocytes/Leukocytes (%) | Neutrophils, Segmented (x10E9/L) | Neutrophils, Segmented/Leukocytes (%) | Platelets (x10E9/L) | Leukocytes (x10E9/L)",1 | 2 | 3 | 4 | 8 | 9 | 10 | 37 | 39 | 40 | 42 | 59 | 79 | 84 | 86 | 5 | 7 | 43 | 44 | 53 | 55 | 63 | 66 | 70 | 71 | 77 | 78 | 80 | 89,37 | 42 | 13 | 19 | 7.14 | 2.3952 | 59 | 102 | 79.56 | 7.28 | 4.2 | 1.45305 | 72 | 139 | 0.06 | 0.5 | 0.24 | 2.2 | 0.36 | 121 | 3.08 | 28.6 | 0.47 | 4.3 | 6.89 | 64.2 | 558 | 10.73,-3 | 19 | 3 | -1 | -2.142 | -0.0998000000000001 | 36 | 2 | -8.83999999999999 | -2.1 | -0.2 | 0 | -5 | -0.03 | -0.1 | 1.6 | -0.04 | -23 | 0.12 | 21.4 | -0.17 | 0.4 | -4.26 | -23.1 | 85 | -4.33,-8.10810810810811 | 45.2380952380952 | 23.0769230769231 | -5.26315789473684 | -30 | -4.16666666666667 | 61.0169491525424 | 1.96078431372549 | -11.1111111111111 | -28.8461538461538 | -4.76190476190477 | 0 | -6.94444444444444 | -50 | -20 | 72.7272727272727 | -19.0082644628099 | 3.8961038961039 | 74.8251748251748 | -36.1702127659574 | 9.30232558139536 | -61.8287373004354 | -35.981308411215 | 15.2329749103943 | -40.354147250699,,,,,33 | 31 | 6 | 9 | 3.42 | 1.428 | 2.0709 | 18 | 94 | 35.36 | 3.4 | 0.7104 | 61 | 132 | 0 | 0.34 | 116 | 0.91 | 15.4 | 0.12 | 2.6 | 1.96 | 40.5 | 140 | 3.8,49 | 106 | 34 | 20.52 | 8.568 | 2.6447 | 169 | 112 | 97.24 | 2.87 | 5.4 | 1.6468 | 84 | 147 | 0.2 | 2 | 0.57 | 6.8 | 0.48 | 164 | 4.28 | 48.5 | 0.92 | 10.1 | 7.23 | 75 | 400 | 10.7,Y,,,,Y,,,2014-02-28,2014-02-28 18:00:00,34,61,16,18,0.03,0.4,,4.998,2.2954,,,,,,,,,,,,,,,,,,,,,,,,,,,95,104,70.72,,5.18,0.24,3.8,,,,,0.32,,98,,4,,,3.2,50,0.3,4.7,,2.63,41.1,1.45305,643,67,139,,6.4,,<3.42,,,,,,,,,,,,,,,,,,,,,,,,,,,,,,,,,,,,,,,,,,,,,,,,,,,,,,,,,,,,,,,,,,,,,,,,,,,,,,,,,,,,,,,,,,,,,,,,,,,,,,,,,,,,,,,,,,,,,,,,,,,,,,,,,,,,,,,,,,,,,,,,,,,,,,,,,,,,,,,,,,,,,,,,,,,,,,,,,,,,,,,,,,,,,,,,,,,,,,,,,,,,,,,,,,,,,,,,,,,,,,,,,,,,,,,,,,,,,,,,,,,,54781532UCO2001,US10762,2.0,Y,2014-03-27T11:00,30012,WEEK 12,6 | 19 | 31 | 43,JNJ-54781532 150 mg QD,4.0,Diastolic Blood Pressure (mmHg) | Heart Rate (BEATS/MIN) | Respiratory Rate (BREATHS/MIN) | Systolic Blood Pressure (mmHg),4 | 1 | 2 | 3,82,,96,16,123,,,,,,,,,,,,,,,,,,,,,,,,,,,,,,,,,,,,,,,,,,,,,,,,,,,,,,,,,,,,,,,,,,,,,,,,,,,
54781532UCO2001-002,WEEK 16,30016,30016-WEEK 16,,,,,,,,,,,,,,,,,,,,,,,,,,,,,,,,,,,,,,,,,,,,,,,,,,,,,,,,,,,,,,,,,,,,,,,,,,,,,,,,,,,,,,54781532UCO2001,2.0,US10762,31.0,YEARS,< 40 years,1.0,F,USA,North America,1.0,WHITE,Caucasian,1.0,54.0,< 75 kg,1.0,8.0,> 5 years to <= 15 years,2.0,LIMITED TO LEFT SIDE OF COLON,Absent,10.0,>= 9,2.0,Moderate,1.0,1.0,3.0,7.28,>= 3 mg/L,2.0,N,N,N,Y,Y,Y,N,Y,N,Y,N,JNJ-54781532 150 mg QD,4.0,92 | 94 | 93 | 90 | 91 | 88 | 89 | 86 | 87 | 85,Calprotectin Score | CRP Score | Lactoferrin Score | Partial Mayo Clinical Remission | Partial Mayo Clinical Response | Physicians Global Assessment | Partial Mayo Score | Rectal Bleeding | Worse Rectal Bleeding | Stool Frequency,31 | 33 | 32 | 22 | 29 | 4 | 8 | 2 | 3 | 1,,LOCF |  | Derived,,Y,430.8 | 7.28 | 344039 | 2 | 7 | 3,-260.5 | -5.84 | -338759.1 | -1 | -5 | -2,2014-04-21 | 2014-04-29,113 | 121,,2014-02-28,N,N,N,N,170.3,1.44,,,,,,,,5279.9,,,,Y,1.0,2,0.0,1.0,,,,1.0,,Y,,,,,,,,,,,,,,,,,,,,,,,,,,,,,,,,,,,,,,,,,,,54781532UCO2001,2.0,Y,N,JNJ-54781532 150 mg QD,4.0,JNJ-54781532 150 mg QD,4.0,7 | 20 | 33 | 46 | 59 | 72 | 85 | 94 | 98 | 111 | 124 | 136 | 149 | 165 | 177 | 181 | 189 | 202 | 215 | 231 | 244 | 257 | 270 | 283 | 296 | 309 | 322 | 335 | 348 | 361 | 374 | 387 | 400,CHEMISTRY | HEMATOLOGY,33 | 31 | 6 | 9 | 3.42 | 1.428 | 2.07085 | 18 | 94 | 35.36 | 3.4 | 0.71038 | 61 | 132 | 0 | 0.34 | 116 | 0.91 | 15.4 | 0.12 | 2.6 | 1.96 | 40.5 | 140 | 3.8,49 | 106 | 34 | 20.52 | 8.568 | 2.6447 | 169 | 112 | 97.24 | 2.87 | 5.4 | 1.64679 | 84 | 147 | 0.2 | 2 | 0.57 | 6.8 | 0.48 | 164 | 4.28 | 48.5 | 0.92 | 10.1 | 7.23 | 75 | 400 | 10.7,,NORMAL | LOW |  | HIGH,,1,,30016,WEEK 16,2014-04-29T11:20,121,SERUM |  | STOOL, | ASSAY YIELDING BY MASS RESULTS | ASSAY YIELDING BY VOLUME RESULTS | HIGH SENSITIVITY ASSAY,ROOM TEMPERATURE | ,,"SERUM Albumin (g/L) | Alkaline Phosphatase (U/L) | Alanine Aminotransferase (U/L) | Aspartate Aminotransferase (U/L) | Bilirubin (umol/L) | Blood Urea Nitrogen (mmol/L) | Calcium (mmol/L) | STOOL Calprotectin | Creatine Kinase (U/L) | Chloride (mmol/L) | Creatinine (umol/L) | C Reactive Protein (mg/L) | Potassium (mmol/L) | STOOL Lactoferrin | Phosphate (mmol/L) | Protein (g/L) | Sodium (mmol/L) | Basophils (x10E9/L) | Basophils/Leukocytes (%) | Eosinophils (x10E9/L) | Eosinophils/Leukocytes (%) | Hematocrit (fraction) | Hemoglobin (g/L) | Lymphocytes (x10E9/L) | Lymphocytes/Leukocytes (%) | Monocytes (x10E9/L) | Monocytes/Leukocytes (%) | Neutrophils, Segmented (x10E9/L) | Neutrophils, Segmented/Leukocytes (%) | Platelets (x10E9/L) | Leukocytes (x10E9/L)",1 | 2 | 3 | 4 | 8 | 9 | 10 | 11 | 37 | 39 | 40 | 42 | 59 | 62 | 79 | 84 | 86 | 5 | 7 | 43 | 44 | 53 | 55 | 63 | 66 | 70 | 71 | 77 | 78 | 80 | 89,37 | 42 | 13 | 19 | 7.14 | 2.3952 | 172.32 | 59 | 102 | 79.56 | 7.28 | 4.2 | 344039 | 1.45305 | 72 | 139 | 0.06 | 0.5 | 0.24 | 2.2 | 0.36 | 121 | 3.08 | 28.6 | 0.47 | 4.3 | 6.89 | 64.2 | 558 | 10.73,0 | 10 | 0.714 | -0.0499000000000001 | 188 | -8.83999999999999 | -5.84 | 0.3 | 0.12916 | -2 | -0.04 | -0.2 | -0.12 | -0.5 | -0.03 | -14 | -0.66 | 4.9 | -0.11 | 0.7 | -2.59 | -4.6 | -192 | -3.5,0 | 23.8095238095238 | 52.6315789473684 | 9.99999999999999 | -2.08333333333334 | 318.64406779661 | -11.1111111111111 | -80.2197802197802 | 7.14285714285714 | 8.88888888888888 | -2.77777777777778 | -1.43884892086331 | -66.6666666666667 | -40 | -50 | -22.7272727272727 | -8.33333333333333 | -11.5702479338843 | -21.4285714285714 | 17.1328671328671 | -23.4042553191489 | 16.2790697674419 | -37.5907111756168 | -7.16510903426791 | -34.4086021505376 | -32.618825722274,,,,,33 | 31 | 6 | 9 | 3.42 | 1.428 | 2.0709 | 18 | 94 | 35.36 | 3.4 | 0.7104 | 61 | 132 | 0 | 0.34 | 116 | 0.91 | 15.4 | 0.12 | 2.6 | 1.96 | 40.5 | 140 | 3.8,49 | 106 | 34 | 20.52 | 8.568 | 2.6447 | 169 | 112 | 97.24 | 2.87 | 5.4 | 1.6468 | 84 | 147 | 0.2 | 2 | 0.57 | 6.8 | 0.48 | 164 | 4.28 | 48.5 | 0.92 | 10.1 | 7.23 | 75 | 400 | 10.7,Y | ,, | Y, | Y,Y,,,2014-02-28,2014-02-28 18:00:00,37,52,13,29,0.02,0.3,,7.854,2.3453,,,,,,,,,,,,,,,,,,,,,,,,,,,247,102,70.72,,1.44,0.12,1.7,,,,,0.33,,107,,4.5,,,2.42,33.5,0.36,5,,4.3,59.6,1.58221,366,70,137,,7.23,,<3.42,,,,,,,,,,,,,,,,,,,,,,,,,,,,,,,,,,,,,,,,,,,,,,,,,,,,,,,,,,,,,,,,,,,,,,,,,,,,,,,,,,,,,,,,,,,,,,,,,,,,,,,,,,,,,,,,,,,,,,,,,,,,,,,,,,,,,,,,,,,,,,,,,,,,,,,,,,,,,,,,,,,,,,,,,,,,,,,,,,,,,,,,,,,,,,,,,,,,,,,,,,,,,,,,,,,,,,,,,,,,,,,,,,,,,,,,,,,,,,,,,,,,54781532UCO2001,US10762,2.0,Y,2014-04-29T11:05,30016,WEEK 16,7 | 20 | 32 | 44,JNJ-54781532 150 mg QD,4.0,Diastolic Blood Pressure (mmHg) | Heart Rate (BEATS/MIN) | Respiratory Rate (BREATHS/MIN) | Systolic Blood Pressure (mmHg),4 | 1 | 2 | 3,76,,75,16,115,,,,,,,,,,,,,,,,,,,,,,,,,,,,,,,,,,,,,,,,,,,,,,,,,,,,,,,,,,,,,,,,,,,,,,,,,,,
54781532UCO2001-002,WEEK 20,30020,30020-WEEK 20,,,,,,,,,,,,,,,,,,,,,,,,,,,,,,,,,,,,,,,,,,,,,,,,,,,,,,,,,,,,,,,,,,,,,,,,,,,,,,,,,,,,,,54781532UCO2001,2.0,US10762,31.0,YEARS,< 40 years,1.0,F,USA,North America,1.0,WHITE,Caucasian,1.0,54.0,< 75 kg,1.0,8.0,> 5 years to <= 15 years,2.0,LIMITED TO LEFT SIDE OF COLON,Absent,10.0,>= 9,2.0,Moderate,1.0,1.0,3.0,7.28,>= 3 mg/L,2.0,N,N,N,Y,Y,Y,N,Y,N,Y,N,JNJ-54781532 150 mg QD,4.0,102 | 100 | 101 | 98 | 99 | 96 | 97 | 95,CRP Score | Partial Mayo Clinical Remission | Partial Mayo Clinical Response | Physicians Global Assessment | Partial Mayo Score | Rectal Bleeding | Worse Rectal Bleeding | Stool Frequency,33 | 22 | 29 | 4 | 8 | 2 | 3 | 1,, | Derived,,Y,7.28 | 2 | 7 | 3,-1.81 | 0 | 1,2014-05-29 00:00:00,151,,2014-02-28,N,N,N,N,,5.47,,,,,,,,,,,,N,2.0,7,2.0,3.0,,,,3.0,,N,,,,,,,,,,,,,,,,,,,,,,,,,,,,,,,,,,,,,,,,,,,54781532UCO2001,2.0,Y,N,JNJ-54781532 150 mg QD,4.0,JNJ-54781532 150 mg QD,4.0,8 | 21 | 34 | 47 | 60 | 73 | 86 | 112 | 125 | 137 | 150 | 166 | 190 | 203 | 216 | 232 | 245 | 258 | 271 | 284 | 297 | 310 | 323 | 336 | 349 | 362 | 375 | 388 | 401,CHEMISTRY | HEMATOLOGY,33 | 31 | 6 | 9 | 3.42 | 1.428 | 2.07085 | 18 | 94 | 35.36 | 3.4 | 0.71038 | 61 | 132 | 0 | 0.34 | 116 | 0.91 | 15.4 | 0.12 | 2.6 | 1.96 | 40.5 | 140 | 3.8,49 | 106 | 34 | 20.52 | 8.568 | 2.6447 | 169 | 112 | 97.24 | 2.87 | 5.4 | 1.64679 | 84 | 147 | 0.2 | 2 | 0.57 | 6.8 | 0.48 | 164 | 4.28 | 48.5 | 0.92 | 10.1 | 7.23 | 75 | 400 | 10.7,,NORMAL | LOW | HIGH,,1,,30020,WEEK 20,2014-05-29T10:45,151,SERUM | , | HIGH SENSITIVITY ASSAY,ROOM TEMPERATURE,,"SERUM Albumin (g/L) | Alkaline Phosphatase (U/L) | Alanine Aminotransferase (U/L) | Aspartate Aminotransferase (U/L) | Bilirubin (umol/L) | Blood Urea Nitrogen (mmol/L) | Calcium (mmol/L) | Creatine Kinase (U/L) | Chloride (mmol/L) | Creatinine (umol/L) | C Reactive Protein (mg/L) | Potassium (mmol/L) | Phosphate (mmol/L) | Protein (g/L) | Sodium (mmol/L) | Basophils (x10E9/L) | Basophils/Leukocytes (%) | Eosinophils (x10E9/L) | Eosinophils/Leukocytes (%) | Hematocrit (fraction) | Hemoglobin (g/L) | Lymphocytes (x10E9/L) | Lymphocytes/Leukocytes (%) | Monocytes (x10E9/L) | Monocytes/Leukocytes (%) | Neutrophils, Segmented (x10E9/L) | Neutrophils, Segmented/Leukocytes (%) | Platelets (x10E9/L) | Leukocytes (x10E9/L)",1 | 2 | 3 | 4 | 8 | 9 | 10 | 37 | 39 | 40 | 42 | 59 | 79 | 84 | 86 | 5 | 7 | 43 | 44 | 53 | 55 | 63 | 66 | 70 | 71 | 77 | 78 | 80 | 89,37 | 42 | 13 | 19 | 7.14 | 2.3952 | 59 | 102 | 79.56 | 7.28 | 4.2 | 1.45305 | 72 | 139 | 0.06 | 0.5 | 0.24 | 2.2 | 0.36 | 121 | 3.08 | 28.6 | 0.47 | 4.3 | 6.89 | 64.2 | 558 | 10.73,-2 | 11 | 0 | 7 | 1.428 | -0.0998000000000001 | 155 | 3 | -8.83999999999999 | -1.81 | -0.100000000000001 | -0.0645800000000001 | -6 | -1 | -0.02 | -0.1 | -0.03 | -0.4 | -16 | -0.48 | -6.2 | 0.0700000000000001 | 0.4 | 1.35 | 6.59999999999999 | -164 | 0.91,-5.40540540540541 | 26.1904761904762 | 0 | 36.8421052631579 | 20 | -4.16666666666667 | 262.71186440678 | 2.94117647058824 | -11.1111111111111 | -24.8626373626373 | -2.38095238095239 | -4.44444444444445 | -8.33333333333333 | -0.719424460431655 | -33.3333333333333 | -20 | -12.5 | -18.1818181818182 | -13.2231404958678 | -15.5844155844156 | -21.6783216783217 | 14.8936170212766 | 9.30232558139536 | 19.5936139332366 | 10.2803738317757 | -29.3906810035842 | 8.48089468779124,,,,,33 | 31 | 6 | 9 | 3.42 | 1.428 | 2.0709 | 18 | 94 | 35.36 | 3.4 | 0.7104 | 61 | 132 | 0 | 0.34 | 116 | 0.91 | 15.4 | 0.12 | 2.6 | 1.96 | 40.5 | 140 | 3.8,49 | 106 | 34 | 20.52 | 8.568 | 2.6447 | 169 | 112 | 97.24 | 2.87 | 5.4 | 1.6468 | 84 | 147 | 0.2 | 2 | 0.57 | 6.8 | 0.48 | 164 | 4.28 | 48.5 | 0.92 | 10.1 | 7.23 | 75 | 400 | 10.7,Y,,,,Y,,,2014-02-28,2014-02-28 18:00:00,35,53,13,26,0.04,0.4,,8.568,2.2954,,,,,,,,,,,,,,,,,,,,,,,,,,,214,105,70.72,,5.47,0.21,1.8,,,,,0.33,,105,,4.1,,,2.6,22.4,0.54,4.7,,8.24,70.8,1.38847,394,66,138,,11.64,,<3.42,,,,,,,,,,,,,,,,,,,,,,,,,,,,,,,,,,,,,,,,,,,,,,,,,,,,,,,,,,,,,,,,,,,,,,,,,,,,,,,,,,,,,,,,,,,,,,,,,,,,,,,,,,,,,,,,,,,,,,,,,,,,,,,,,,,,,,,,,,,,,,,,,,,,,,,,,,,,,,,,,,,,,,,,,,,,,,,,,,,,,,,,,,,,,,,,,,,,,,,,,,,,,,,,,,,,,,,,,,,,,,,,,,,,,,,,,,,,,,,,,,,,54781532UCO2001,US10762,2.0,Y,2014-05-29T10:40,30020,WEEK 20,8 | 21 | 33 | 45,JNJ-54781532 150 mg QD,4.0,Diastolic Blood Pressure (mmHg) | Heart Rate (BEATS/MIN) | Respiratory Rate (BREATHS/MIN) | Systolic Blood Pressure (mmHg),4 | 1 | 2 | 3,79,,71,16,119,,,,,,,,,,,,,,,,,,,,,,,,,,,,,,,,,,,,,,,,,,,,,,,,,,,,,,,,,,,,,,,,,,,,,,,,,,,
54781532UCO2001-002,WEEK 24,30024,30024-WEEK 24,,,,,,,,,,,,,,,,,,,,,,,,,,,,,,,,,,,,,,,,,,,,,,,,,,,,,,,,,,,,,,,,,,,,,,,,,,,,,,,,,,,,,,54781532UCO2001,2.0,US10762,31.0,YEARS,< 40 years,1.0,F,USA,North America,1.0,WHITE,Caucasian,1.0,54.0,< 75 kg,1.0,8.0,> 5 years to <= 15 years,2.0,LIMITED TO LEFT SIDE OF COLON,Absent,10.0,>= 9,2.0,Moderate,1.0,1.0,3.0,7.28,>= 3 mg/L,2.0,N,N,N,Y,Y,Y,N,Y,N,Y,N,JNJ-54781532 150 mg QD,4.0,110 | 108 | 109 | 106 | 107 | 104 | 105 | 103,CRP Score | Partial Mayo Clinical Remission | Partial Mayo Clinical Response | Physicians Global Assessment | Partial Mayo Score | Rectal Bleeding | Worse Rectal Bleeding | Stool Frequency,33 | 22 | 29 | 4 | 8 | 2 | 3 | 1,, | Derived,,Y,7.28 | 2 | 7 | 3,-3.33 | 0 | -1,2014-06-26 00:00:00,179,,2014-02-28,N,N,N,N,,3.95,,,,,,,,,,,,N,2.0,6,1.0,1.0,,,,3.0,,N,,,,,,,,,,,,,,,,,,,,,,,,,,,,,,,,,,,,,,,,,,,54781532UCO2001,2.0,Y,N,JNJ-54781532 150 mg QD,4.0,JNJ-54781532 150 mg QD,4.0,9 | 22 | 35 | 48 | 61 | 74 | 87 | 113 | 126 | 138 | 151 | 167 | 191 | 204 | 217 | 233 | 246 | 259 | 272 | 285 | 298 | 311 | 324 | 337 | 350 | 363 | 376 | 389 | 402,CHEMISTRY | HEMATOLOGY,33 | 31 | 6 | 9 | 3.42 | 1.428 | 2.07085 | 18 | 94 | 35.36 | 3.4 | 0.71038 | 61 | 132 | 0 | 0.34 | 116 | 0.91 | 15.4 | 0.12 | 2.6 | 1.96 | 40.5 | 140 | 3.8,49 | 106 | 34 | 20.52 | 8.568 | 2.6447 | 169 | 112 | 97.24 | 2.87 | 5.4 | 1.64679 | 84 | 147 | 0.2 | 2 | 0.57 | 6.8 | 0.48 | 164 | 4.28 | 48.5 | 0.92 | 10.1 | 7.23 | 75 | 400 | 10.7,,NORMAL | HIGH | LOW,,1,,30024,WEEK 24,2014-06-26T12:15,179,SERUM | , | HIGH SENSITIVITY ASSAY,ROOM TEMPERATURE,,"SERUM Albumin (g/L) | Alkaline Phosphatase (U/L) | Alanine Aminotransferase (U/L) | Aspartate Aminotransferase (U/L) | Bilirubin (umol/L) | Blood Urea Nitrogen (mmol/L) | Calcium (mmol/L) | Creatine Kinase (U/L) | Chloride (mmol/L) | Creatinine (umol/L) | C Reactive Protein (mg/L) | Potassium (mmol/L) | Phosphate (mmol/L) | Protein (g/L) | Sodium (mmol/L) | Basophils (x10E9/L) | Basophils/Leukocytes (%) | Eosinophils (x10E9/L) | Eosinophils/Leukocytes (%) | Hematocrit (fraction) | Hemoglobin (g/L) | Lymphocytes (x10E9/L) | Lymphocytes/Leukocytes (%) | Monocytes (x10E9/L) | Monocytes/Leukocytes (%) | Neutrophils, Segmented (x10E9/L) | Neutrophils, Segmented/Leukocytes (%) | Platelets (x10E9/L) | Leukocytes (x10E9/L)",1 | 2 | 3 | 4 | 8 | 9 | 10 | 37 | 39 | 40 | 42 | 59 | 79 | 84 | 86 | 5 | 7 | 43 | 44 | 53 | 55 | 63 | 66 | 70 | 71 | 77 | 78 | 80 | 89,37 | 42 | 13 | 19 | 7.14 | 2.3952 | 59 | 102 | 79.56 | 7.28 | 4.2 | 1.45305 | 72 | 139 | 0.06 | 0.5 | 0.24 | 2.2 | 0.36 | 121 | 3.08 | 28.6 | 0.47 | 4.3 | 6.89 | 64.2 | 558 | 10.73,1 | 11 | 0 | 7 | -1.428 | -0.1497 | 174 | 3 | -8.83999999999999 | -3.33 | -0.7 | -0.45206 | -4 | -0.02 | -0.1 | -0.13 | -1.1 | -0.04 | -17 | -0.14 | 0.699999999999999 | -0.16 | -1.2 | -0.25 | 1.89999999999999 | -155 | -0.68,2.7027027027027 | 26.1904761904762 | 0 | 36.8421052631579 | -20 | -6.25000000000001 | 294.915254237288 | 2.94117647058824 | -11.1111111111111 | -45.7417582417582 | -16.6666666666667 | -31.1111111111111 | -5.55555555555556 | 0.719424460431655 | -33.3333333333333 | -54.1666666666667 | -50 | -14.0495867768595 | -4.54545454545455 | 2.44755244755244 | -34.0425531914894 | -27.906976744186 | -3.62844702467344 | 2.95950155763239 | -27.7777777777778 | -6.33737185461323,,,,,33 | 31 | 6 | 9 | 3.42 | 1.428 | 2.0709 | 18 | 94 | 35.36 | 3.4 | 0.7104 | 61 | 132 | 0 | 0.34 | 116 | 0.91 | 15.4 | 0.12 | 2.6 | 1.96 | 40.5 | 140 | 3.8,49 | 106 | 34 | 20.52 | 8.568 | 2.6447 | 169 | 112 | 97.24 | 2.87 | 5.4 | 1.6468 | 84 | 147 | 0.2 | 2 | 0.57 | 6.8 | 0.48 | 164 | 4.28 | 48.5 | 0.92 | 10.1 | 7.23 | 75 | 400 | 10.7,Y,,,,Y,,,2014-02-28,2014-02-28 18:00:00,38,53,13,26,0.04,0.4,5.13,5.712,2.2455,,,,,,,,,,,,,,,,,,,,,,,,,,,233,105,70.72,,3.95,0.11,1.1,,,,,0.32,,104,,3.5,,,2.94,29.3,0.31,3.1,,6.64,66.1,1.00099,403,68,140,,10.05,,,,,,,,,,,,,,,,,,,,,,,,,,,,,,,,,,,,,,,,,,,,,,,,,,,,,,,,,,,,,,,,,,,,,,,,,,,,,,,,,,,,,,,,,,,,,,,,,,,,,,,,,,,,,,,,,,,,,,,,,,,,,,,,,,,,,,,,,,,,,,,,,,,,,,,,,,,,,,,,,,,,,,,,,,,,,,,,,,,,,,,,,,,,,,,,,,,,,,,,,,,,,,,,,,,,,,,,,,,,,,,,,,,,,,,,,,,,,,,,,,,,,,54781532UCO2001,US10762,2.0,Y,2014-06-26T12:10,30024,WEEK 24,9 | 22 | 34 | 46,JNJ-54781532 150 mg QD,4.0,Diastolic Blood Pressure (mmHg) | Heart Rate (BEATS/MIN) | Respiratory Rate (BREATHS/MIN) | Systolic Blood Pressure (mmHg),4 | 1 | 2 | 3,66,,90,18,109,,,,,,,,,,,,,,,,,,,,,,,,,,,,,,,,,,,,,,,,,,,,,,,,,,,,,,,,,,,,,,,,,,,,,,,,,,,
54781532UCO2001-002,WEEK 28,30028,30028-WEEK 28,,,,,,,,,,,,,,,,,,,,,,,,,,,,,,,,,,,,,,,,,,,,,,,,,,,,,,,,,,,,,,,,,,,,,,,,,,,,,,,,,,,,,,54781532UCO2001,2.0,US10762,31.0,YEARS,< 40 years,1.0,F,USA,North America,1.0,WHITE,Caucasian,1.0,54.0,< 75 kg,1.0,8.0,> 5 years to <= 15 years,2.0,LIMITED TO LEFT SIDE OF COLON,Absent,10.0,>= 9,2.0,Moderate,1.0,1.0,3.0,7.28,>= 3 mg/L,2.0,N,N,N,Y,Y,Y,N,Y,N,Y,N,JNJ-54781532 150 mg QD,4.0,118 | 116 | 117 | 114 | 115 | 112 | 113 | 111,CRP Score | Partial Mayo Clinical Remission | Partial Mayo Clinical Response | Physicians Global Assessment | Partial Mayo Score | Rectal Bleeding | Worse Rectal Bleeding | Stool Frequency,33 | 22 | 29 | 4 | 8 | 2 | 3 | 1,, | Derived,,Y,7.28 | 2 | 7 | 3,-6.69 | -1 | -5 | -2,2014-07-25 00:00:00,208,,2014-02-28,N,N,N,N,,0.59,,,,,,,,,,,,Y,1.0,2,0.0,1.0,,,,1.0,,Y,,,,,,,,,,,,,,,,,,,,,,,,,,,,,,,,,,,,,,,,,,,54781532UCO2001,2.0,Y,N,JNJ-54781532 150 mg QD,4.0,JNJ-54781532 150 mg QD,4.0,10 | 23 | 36 | 49 | 62 | 75 | 88 | 114 | 127 | 139 | 152 | 168 | 192 | 205 | 218 | 234 | 247 | 260 | 273 | 286 | 299 | 312 | 325 | 338 | 351 | 364 | 377 | 390 | 403,CHEMISTRY | HEMATOLOGY,33 | 31 | 6 | 9 | 3.42 | 1.428 | 2.07085 | 18 | 94 | 35.36 | 3.4 | 0.71038 | 61 | 132 | 0 | 0.34 | 116 | 0.91 | 15.4 | 0.12 | 2.6 | 1.96 | 40.5 | 140 | 3.8,49 | 106 | 34 | 20.52 | 8.568 | 2.6447 | 169 | 112 | 97.24 | 2.87 | 5.4 | 1.64679 | 84 | 147 | 0.2 | 2 | 0.57 | 6.8 | 0.48 | 164 | 4.28 | 48.5 | 0.92 | 10.1 | 7.23 | 75 | 400 | 10.7,,NORMAL | LOW | HIGH,,1,,30028,WEEK 28,2014-07-25T09:30,208,SERUM | , | HIGH SENSITIVITY ASSAY,ROOM TEMPERATURE,,"SERUM Albumin (g/L) | Alkaline Phosphatase (U/L) | Alanine Aminotransferase (U/L) | Aspartate Aminotransferase (U/L) | Bilirubin (umol/L) | Blood Urea Nitrogen (mmol/L) | Calcium (mmol/L) | Creatine Kinase (U/L) | Chloride (mmol/L) | Creatinine (umol/L) | C Reactive Protein (mg/L) | Potassium (mmol/L) | Phosphate (mmol/L) | Protein (g/L) | Sodium (mmol/L) | Basophils (x10E9/L) | Basophils/Leukocytes (%) | Eosinophils (x10E9/L) | Eosinophils/Leukocytes (%) | Hematocrit (fraction) | Hemoglobin (g/L) | Lymphocytes (x10E9/L) | Lymphocytes/Leukocytes (%) | Monocytes (x10E9/L) | Monocytes/Leukocytes (%) | Neutrophils, Segmented (x10E9/L) | Neutrophils, Segmented/Leukocytes (%) | Platelets (x10E9/L) | Leukocytes (x10E9/L)",1 | 2 | 3 | 4 | 8 | 9 | 10 | 37 | 39 | 40 | 42 | 59 | 79 | 84 | 86 | 5 | 7 | 43 | 44 | 53 | 55 | 63 | 66 | 70 | 71 | 77 | 78 | 80 | 89,37 | 42 | 13 | 19 | 7.14 | 2.3952 | 59 | 102 | 79.56 | 7.28 | 4.2 | 1.45305 | 72 | 139 | 0.06 | 0.5 | 0.24 | 2.2 | 0.36 | 121 | 3.08 | 28.6 | 0.47 | 4.3 | 6.89 | 64.2 | 558 | 10.73,3 | 13 | 5 | -1.785 | -0.0499000000000001 | 114 | 2 | -17.68 | -6.69 | -0.3 | -0.12916 | -3 | 0 | -0.02 | 0.1 | -0.12 | -0.5 | -0.03 | -16 | -0.35 | 12 | -0.08 | 1.4 | -3.44 | -12.8 | -144 | -4.01,8.10810810810811 | 30.952380952381 | 23.0769230769231 | 26.3157894736842 | -25 | -2.08333333333334 | 193.220338983051 | 1.96078431372549 | -22.2222222222222 | -91.8956043956044 | -7.14285714285715 | -8.8888888888889 | -4.16666666666667 | 0 | -33.3333333333333 | 20 | -50 | -22.7272727272727 | -8.33333333333333 | -13.2231404958678 | -11.3636363636364 | 41.958041958042 | -17.0212765957447 | 32.5581395348837 | -49.9274310595065 | -19.9376947040499 | -25.8064516129032 | -37.3718546132339,,,,,33 | 31 | 6 | 9 | 3.42 | 1.428 | 2.0709 | 18 | 94 | 35.36 | 3.4 | 0.7104 | 61 | 132 | 0 | 0.34 | 116 | 0.91 | 15.4 | 0.12 | 2.6 | 1.96 | 40.5 | 140 | 3.8,49 | 106 | 34 | 20.52 | 8.568 | 2.6447 | 169 | 112 | 97.24 | 2.87 | 5.4 | 1.6468 | 84 | 147 | 0.2 | 2 | 0.57 | 6.8 | 0.48 | 164 | 4.28 | 48.5 | 0.92 | 10.1 | 7.23 | 75 | 400 | 10.7,Y,,,,Y,,,2014-02-28,2014-02-28 18:00:00,40,55,16,24,0.04,0.6,,5.355,2.3453,,,,,,,,,,,,,,,,,,,,,,,,,,,173,104,61.88,,0.59,0.12,1.7,,,,,0.33,,105,,3.9,,,2.73,40.6,0.39,5.7,,3.45,51.4,1.32389,414,69,139,,6.72,,<3.42,,,,,,,,,,,,,,,,,,,,,,,,,,,,,,,,,,,,,,,,,,,,,,,,,,,,,,,,,,,,,,,,,,,,,,,,,,,,,,,,,,,,,,,,,,,,,,,,,,,,,,,,,,,,,,,,,,,,,,,,,,,,,,,,,,,,,,,,,,,,,,,,,,,,,,,,,,,,,,,,,,,,,,,,,,,,,,,,,,,,,,,,,,,,,,,,,,,,,,,,,,,,,,,,,,,,,,,,,,,,,,,,,,,,,,,,,,,,,,,,,,,,54781532UCO2001,US10762,2.0,Y,2014-07-25T09:20,30028,WEEK 28,10 | 23 | 35 | 47,JNJ-54781532 150 mg QD,4.0,Diastolic Blood Pressure (mmHg) | Heart Rate (BEATS/MIN) | Respiratory Rate (BREATHS/MIN) | Systolic Blood Pressure (mmHg),4 | 1 | 2 | 3,80,,61,16,120,,,,,,,,,,,,,,,,,,,,,,,,,,,,,,,,,,,,,,,,,,,,,,,,,,,,,,,,,,,,,,,,,,,,,,,,,,,
54781532UCO2001-002,WEEK 32,30032,30032-WEEK 32,,,,,,,,,,,,,,,,,,,,,,,,,,,,,,,,,,,,,,,,,,,,,,,,,,,,,,,,,,,,,,,,,,,,,,,,,,,,,,,,,,,,,,54781532UCO2001,2.0,US10762,31.0,YEARS,< 40 years,1.0,F,USA,North America,1.0,WHITE,Caucasian,1.0,54.0,< 75 kg,1.0,8.0,> 5 years to <= 15 years,2.0,LIMITED TO LEFT SIDE OF COLON,Absent,10.0,>= 9,2.0,Moderate,1.0,1.0,3.0,7.28,>= 3 mg/L,2.0,N,N,N,Y,Y,Y,N,Y,N,Y,N,JNJ-54781532 150 mg QD,4.0,126 | 128 | 127 | 124 | 125 | 122 | 123 | 120 | 121 | 119,Calprotectin Score | CRP Score | Lactoferrin Score | Partial Mayo Clinical Remission | Partial Mayo Clinical Response | Physicians Global Assessment | Partial Mayo Score | Rectal Bleeding | Worse Rectal Bleeding | Stool Frequency,31 | 33 | 32 | 22 | 29 | 4 | 8 | 2 | 3 | 1,, | Derived,,Y,430.8 | 7.28 | 344039 | 2 | 7 | 3,-234.54 | -6.29 | -282502 | -1 | -5 | -2,2014-08-28 00:00:00,242,,2014-02-28,N,N,N,N,196.26,0.99,,,,,,,,61537,,,,Y,1.0,2,0.0,0.0,,,,1.0,,Y,,,,,,,,,,,,,,,,,,,,,,,,,,,,,,,,,,,,,,,,,,,54781532UCO2001,2.0,Y,N,JNJ-54781532 150 mg QD,4.0,JNJ-54781532 150 mg QD,4.0,11 | 24 | 37 | 50 | 63 | 76 | 89 | 95 | 99 | 103 | 115 | 128 | 140 | 153 | 157 | 169 | 173 | 178 | 182 | 193 | 206 | 219 | 223 | 235 | 248 | 261 | 274 | 287 | 300 | 313 | 326 | 339 | 352 | 365 | 378 | 391 | 404 | 409 | 412 | 415 | 418 | 421 | 424 | 427 | 430 | 433 | 436 | 439 | 442 | 445 | 448 | 451 | 454 | 457 | 460 | 463 | 466 | 469 | 472 | 475 | 478 | 481 | 484 | 487 | 490,CHEMISTRY | HEMATOLOGY | IMMUNOLOGY,33 | 31 | 6 | 9 | 3.42 | 1.428 | 2.07085 | 3.64626 | 18 | 94 | 35.36 | 0.93096 | 3.4 | 1.8102 | 0 | 0.71038 | 61 | 132 | 0.44031 | 0.34 | 116 | 0.91 | 15.4 | 0.12 | 2.6 | 1.96 | 40.5 | 140 | 3.8 | 0.084 | 5 | 0.08 | 0.723 | 56 | 0.404 | 0.22 | 13,49 | 106 | 34 | 20.52 | 8.568 | 2.6447 | 50 | 6.2064 | 169 | 112 | 97.24 | 2.87 | 1.99122 | 5.4 | 4.03416 | 7.24 | 1.64679 | 84 | 147 | 1.98704 | 0.2 | 2 | 0.57 | 6.8 | 0.48 | 164 | 4.28 | 48.5 | 0.92 | 10.1 | 7.23 | 75 | 400 | 10.7 | 0.724 | 26 | 0.616 | 22 | 2.737 | 86 | 1.612 | 58 | 1.129 | 39,,NORMAL | HIGH |  | LOW,,1,,30032,WEEK 32,2014-08-28T10:00,242,SERUM |  | STOOL | BLOOD, | ASSAY YIELDING BY MASS RESULTS | ASSAY YIELDING BY VOLUME RESULTS | HIGH SENSITIVITY ASSAY | CALCULATED | FLOW CYTOMETRY,ROOM TEMPERATURE | FROZEN,Y,"SERUM Albumin (g/L) | Alkaline Phosphatase (U/L) | Alanine Aminotransferase (U/L) | Aspartate Aminotransferase (U/L) | Bilirubin (umol/L) | Blood Urea Nitrogen (mmol/L) | Calcium (mmol/L) | STOOL Calprotectin (ug/g) | STOOL Calprotectin (ug/L) | Cholesterol (mmol/L) | Creatine Kinase (U/L) | Chloride (mmol/L) | Creatinine (umol/L) | C Reactive Protein (mg/L) | HDL Cholesterol (mmol/L) | Potassium (mmol/L) | LDL Cholesterol (mmol/L) | STOOL Lactoferrin (ug/g) | STOOL Lactoferrin (ug/L) | Phosphate (mmol/L) | Protein (g/L) | Sodium (mmol/L) | Triglycerides (mmol/L) | Basophils (x10E9/L) | Basophils/Leukocytes (%) | Eosinophils (x10E9/L) | Eosinophils/Leukocytes (%) | Hematocrit (fraction) | Hemoglobin (g/L) | Lymphocytes (x10E9/L) | Lymphocytes/Leukocytes (%) | Monocytes (x10E9/L) | Monocytes/Leukocytes (%) | Neutrophils, Segmented (x10E9/L) | Neutrophils, Segmented/Leukocytes (%) | Platelets (x10E9/L) | Leukocytes (x10E9/L) | CD16 CD56 (x10E9/L) | CD16 CD56/Lymphocytes (%) | CD19 (x10E9/L) | CD19/Lymphocytes (%) | CD3 (x10E9/L) | CD3/Lymphocytes (%) | CD4 (x10E9/L) | BLOOD CD4 Central Memory T Cells (x10E6/L) | BLOOD CD4 Central Memory T Cells/Total Cells (%) | BLOOD CD4 Effector Memory T Cells (x10E6/L) | BLOOD CD4 Effector Memory T Cells/Total Cells (%) | CD4/Lymphocytes (%) | BLOOD CD4 Naive T Cells (x10E6/L) | BLOOD CD4 Naive T Cells/Total Cells (%) | CD4 Type 1 Helper T Cells/CD4 (%) | CD4 Type 1 Helper T Cells (x10E6/L) | BLOOD CD4 Regulatory T Cells/CD4 (%) | BLOOD CD4 Regulatory T Cells (x10E6/L) | CD8 (x10E9/L) | BLOOD CD8 Central Memory T Cells (x10E6/L) | BLOOD CD8 Central Memory T Cells/Total Cells (%) | BLOOD CD8 Effector Memory T Cells (x10E6/L) | BLOOD CD8 Effector Memory T Cells/Total Cells (%) | CD8/Lymphocytes (%) | BLOOD CD8 Naive T Cells (x10E6/L) | BLOOD CD8 Naive T Cells/Total Cells (%) | BLOOD CD8 Term Diff Eff Mem Cells (x10E6/L) | BLOOD CD8 Term Diff Eff Mem Cells/Total Cells (%)",1 | 2 | 3 | 4 | 8 | 9 | 10 | 11 | 36 | 37 | 39 | 40 | 42 | 54 | 59 | 60 | 62 | 79 | 84 | 86 | 87 | 5 | 7 | 43 | 44 | 53 | 55 | 63 | 66 | 70 | 71 | 77 | 78 | 80 | 89 | 12 | 13 | 14 | 15 | 16 | 17 | 18 | 19 | 20 | 21 | 22 | 23 | 24 | 25 | 26 | 27 | 28 | 29 | 30 | 31 | 32 | 33 | 34,37 | 42 | 13 | 19 | 7.14 | 2.3952 | 172.32 | 3.93072 | 59 | 102 | 79.56 | 7.28 | 1.86192 | 4.2 | 1.52574 | 344039 | 1.45305 | 72 | 139 | 1.19674 | 0.06 | 0.5 | 0.24 | 2.2 | 0.36 | 121 | 3.08 | 28.6 | 0.47 | 4.3 | 6.89 | 64.2 | 558 | 10.73 | 0.156 | 4.8 | 0.307 | 9.4 | 2.726 | 83.9 | 1.807 | 103.36 | 5.72 | 72.64 | 4.02 | 55.6 | 1482.1 | 82.02 | 21.81 | 394.11 | 10.7 | 193.35 | 0.879 | 7.91 | 0.9 | 21.98 | 2.5 | 27.1 | 546.83 | 62.21 | 302.29 | 34.39,7 | 6 | 1 | 9 | -1.071 | 0.02495 | 23.94 | -93.82 | 0.2586 | 142 | -1 | -8.83999999999999 | -6.29 | 0.67236 | 0.2 | -0.18102 | -343977.46 | -282502 | -0.22603 | 2 | -2 | -0.53063 | -0.01 | 0.1 | -0.13 | 0.02 | -4 | -1.41 | -10.5 | -0.11 | -0.4 | 0.12 | 12 | -116 | -1.53 | -0.032 | 1.8 | -0.025 | 5.6 | -1.295 | -7.90000000000001 | -0.821 | -45.38 | 0.16 | 22.8 | 5.66 | -3.2 | -756.21 | -8.39999999999999 | 5.4 | -125.82 | -5.38 | -140.89 | -0.448 | -4.07 | 0.43 | 2.7 | -4.2 | -280.82 | -0.490000000000002 | -163.51 | -2.19,18.9189189189189 | 14.2857142857143 | 7.69230769230769 | 47.3684210526316 | -15 | 1.04166666666667 | 13.8927576601671 | -54.4452181987001 | 6.57894736842106 | 240.677966101695 | -0.980392156862745 | -11.1111111111111 | -86.4010989010989 | 36.1111111111111 | 4.76190476190477 | -11.864406779661 | -99.9821124930604 | -82.1133650545432 | -15.5555555555556 | 2.77777777777778 | -1.43884892086331 | -44.3396226415094 | -16.6666666666667 | 20 | -54.1666666666667 | -45.4545454545455 | 5.55555555555556 | -3.30578512396694 | -45.7792207792208 | -36.7132867132867 | -23.4042553191489 | -9.30232558139535 | 1.74165457184325 | 18.6915887850467 | -20.7885304659498 | -14.2590866728798 | -20.5128205128205 | 37.5 | -8.14332247557002 | 59.5744680851064 | -47.505502567865 | -9.41597139451729 | -45.4344216934145 | -43.9047987616099 | 2.7972027972028 | 31.3876651982379 | 140.796019900498 | -5.75539568345324 | -51.0228729505431 | -10.2414045354791 | 24.7592847317744 | -31.9250970541219 | -50.2803738317757 | -72.8678562192914 | -50.967007963595 | -51.4538558786346 | -1.11111111111111 | 1.95632393084622 | 108 | -15.4981549815498 | -51.3541685715853 | -0.787654717891017 | -54.0904429521321 | -6.36813027042744, | NORMAL-NORMAL | NORMAL-HIGH | LOW-LOW,5 | 6 | 1, | NORMAL | LOW, | NORMAL | HIGH | LOW,33 | 31 | 6 | 9 | 3.42 | 1.428 | 2.0709 | 3.6463 | 18 | 94 | 35.36 | 0.931 | 3.4 | 1.8102 | 0 | 0.7104 | 61 | 132 | 0.4403 | 0.34 | 116 | 0.91 | 15.4 | 0.12 | 2.6 | 1.96 | 40.5 | 140 | 3.8 | 0.084 | 5 | 0.08 | 0.723 | 56 | 0.404 | 0.22 | 13,49 | 106 | 34 | 20.52 | 8.568 | 2.6447 | 50 | 6.2064 | 169 | 112 | 97.24 | 2.87 | 1.9912 | 5.4 | 4.0342 | 7.24 | 1.6468 | 84 | 147 | 1.987 | 0.2 | 2 | 0.57 | 6.8 | 0.48 | 164 | 4.28 | 48.5 | 0.92 | 10.1 | 7.23 | 75 | 400 | 10.7 | 0.724 | 26 | 0.616 | 22 | 2.737 | 86 | 1.612 | 58 | 1.129 | 39,Y | ,,,,Y,,,2014-02-28,2014-02-28 18:00:00,44,48,14,28,0.05,0.6,3.42,6.069,2.42015,196.26 | 78.5,0.124,6.6,0.282,15.0,1.431,76.0,0.986,57.98 | 5.88,95.44 | 9.68,52.4,725.89,73.62,27.21,268.29,5.32,52.46,0.431,3.84 | 0.89,22.41 | 5.2,22.9,266.01,61.72,138.78 | 32.2,,4.18932,201,101,70.72,,0.99,0.11,1.2,,,,,0.38,2.53428,117,,4.4,1.34472,,1.67,18.1,0.36,3.9,,7.01,76.2,1.22702,442,74,137,0.66611,9.2,61.54 | 61537,,,,,,,,,,,,,,,,,,,,,,,,,,,,,,,,,,,,,,,,,,,,,,,,,,,,,,,,,,,,,,,,,,,,,,,,,,,,,,,,,,,,,,,,,,,,,,,,,,,,,,,,54781532UCO2001,PC,7,JNJ-54781532,ng/mL,PLASMA,2014-08-28,2014-08-28 10:00:00,36000,242.0,,,Y,Y,Y,31.0,USA,WHITE,F,JNJ-54781532 150 mg QD,4.0,JNJ-54781532 150 mg QD,4.0,,0.125,,,,,,,,,,,,,,,,,,,,,,,,,,,,,,,,,,,,,,,,,,,,,,,,,,,,,,,,,,,,,,,,,,,,,,,,,,,,,,,,,,,,,,,,,,,,,,,,,,,,,,,,,,,,,,,,,,,,,54781532UCO2001,US10762,2.0,Y,2014-08-28T09:27,30032,WEEK 32,11 | 24 | 36 | 48 | 53,JNJ-54781532 150 mg QD,4.0,Diastolic Blood Pressure (mmHg) | Heart Rate (BEATS/MIN) | Respiratory Rate (BREATHS/MIN) | Systolic Blood Pressure (mmHg) | Weight (kg),4 | 1 | 2 | 3 | 5,75,,75,16,111,58.0,,,,,,,,,,,,,,,,,,,,,,,,,,,,,,,,,,,,,,,,,,,,,,,,,,,,,,,,,,,,,,,,,,,,,,,,,,
54781532UCO2001-002,SAFETY FOLLOW-UP VISIT WEEK 4,99004,99004-SAFETY FOLLOW-UP VISIT WEEK 4,,,,,,,,,,,,,,,,,,,,,,,,,,,,,,,,,,,,,,,,,,,,,,,,,,,,,,,,,,,,,,,,,,,,,,,,,,,,,,,,,,,,,,54781532UCO2001,2.0,US10762,31.0,YEARS,< 40 years,1.0,F,USA,North America,1.0,WHITE,Caucasian,1.0,54.0,< 75 kg,1.0,8.0,> 5 years to <= 15 years,2.0,LIMITED TO LEFT SIDE OF COLON,Absent,10.0,>= 9,2.0,Moderate,1.0,1.0,3.0,7.28,>= 3 mg/L,2.0,N,N,N,Y,Y,Y,N,Y,N,Y,N,JNJ-54781532 150 mg QD,4.0,134 | 135 | 132 | 133 | 130 | 131 | 129,Partial Mayo Clinical Remission | Partial Mayo Clinical Response | Physicians Global Assessment | Partial Mayo Score | Rectal Bleeding | Worse Rectal Bleeding | Stool Frequency,22 | 29 | 4 | 8 | 2 | 3 | 1,,Derived | ,,Y,2 | 7 | 3,-1 | -2 | 0,2014-09-19 00:00:00,264,,2014-02-28,N,N,N,N,,,,,,,,,,,,,,N,1.0,5,1.0,1.0,,,,3.0,,N,,,,,,,,,,,,54781532UCO2001,2.0,Y,N,JNJ-54781532 150 mg QD,4.0,JNJ-54781532 150 mg QD,4.0,3.0,1.0,Interpretation,2014-09-19T07:42,264.0,99004.0,SAFETY FOLLOW-UP VISIT WEEK 4,,,Y,NORMAL,,,,,,,,,,,,,54781532UCO2001,2.0,Y,N,JNJ-54781532 150 mg QD,4.0,JNJ-54781532 150 mg QD,4.0,12 | 25 | 38 | 51 | 64 | 77 | 90 | 104 | 116 | 129 | 141 | 158 | 170 | 174 | 194 | 207 | 220 | 224 | 236 | 249 | 262 | 275 | 288 | 301 | 314 | 327 | 340 | 353 | 366 | 379 | 392 | 405,CHEMISTRY | HEMATOLOGY,33 | 31 | 6 | 9 | 3.42 | 1.428 | 2.07085 | 3.64626 | 18 | 94 | 35.36 | 0.93096 | 3.4 | 1.8102 | 0.71038 | 61 | 132 | 0.44031 | 0 | 0.34 | 116 | 0.91 | 15.4 | 0.12 | 2.6 | 1.96 | 40.5 | 140 | 3.8,49 | 106 | 34 | 20.52 | 8.568 | 2.6447 | 6.2064 | 169 | 112 | 97.24 | 1.99122 | 5.4 | 4.03416 | 1.64679 | 84 | 147 | 1.98704 | 0.2 | 2 | 0.57 | 6.8 | 0.48 | 164 | 4.28 | 48.5 | 0.92 | 10.1 | 7.23 | 75 | 400 | 10.7,,NORMAL | HIGH | LOW,,,,99004,SAFETY FOLLOW-UP VISIT WEEK 4,2014-09-19T08:30,264,SERUM | , | CALCULATED,ROOM TEMPERATURE,Y,"SERUM Albumin (g/L) | Alkaline Phosphatase (U/L) | Alanine Aminotransferase (U/L) | Aspartate Aminotransferase (U/L) | Bilirubin (umol/L) | Blood Urea Nitrogen (mmol/L) | Calcium (mmol/L) | Cholesterol (mmol/L) | Creatine Kinase (U/L) | Chloride (mmol/L) | Creatinine (umol/L) | HDL Cholesterol (mmol/L) | Potassium (mmol/L) | LDL Cholesterol (mmol/L) | Phosphate (mmol/L) | Protein (g/L) | Sodium (mmol/L) | Triglycerides (mmol/L) | Basophils (x10E9/L) | Basophils/Leukocytes (%) | Eosinophils (x10E9/L) | Eosinophils/Leukocytes (%) | Hematocrit (fraction) | Hemoglobin (g/L) | Lymphocytes (x10E9/L) | Lymphocytes/Leukocytes (%) | Monocytes (x10E9/L) | Monocytes/Leukocytes (%) | Neutrophils, Segmented (x10E9/L) | Neutrophils, Segmented/Leukocytes (%) | Platelets (x10E9/L) | Leukocytes (x10E9/L)",1 | 2 | 3 | 4 | 8 | 9 | 10 | 36 | 37 | 39 | 40 | 54 | 59 | 60 | 79 | 84 | 86 | 87 | 5 | 7 | 43 | 44 | 53 | 55 | 63 | 66 | 70 | 71 | 77 | 78 | 80 | 89,37 | 42 | 13 | 19 | 7.14 | 2.3952 | 3.93072 | 59 | 102 | 79.56 | 1.86192 | 4.2 | 1.52574 | 1.45305 | 72 | 139 | 1.19674 | 0.06 | 0.5 | 0.24 | 2.2 | 0.36 | 121 | 3.08 | 28.6 | 0.47 | 4.3 | 6.89 | 64.2 | 558 | 10.73,7 | 10 | -1 | 1 | 0 | 0.0998000000000001 | 0.05172 | 16 | -17.68 | 0.36204 | 0.7 | -0.02586 | -0.38748 | 3 | -0.62095 | -0.2 | -0.19 | -1.9 | 0.01 | -1.79 | -20.8 | -0.15 | -2.3 | 7.84 | 25.4 | 19 | 5.7,18.9189189189189 | 23.8095238095238 | -7.69230769230769 | 5.26315789473684 | 0 | 4.16666666666667 | 1.31578947368421 | 27.1186440677966 | -0.980392156862745 | -22.2222222222222 | 19.4444444444444 | 16.6666666666667 | -1.69491525423729 | -26.6666666666667 | -0.719424460431655 | -51.8867924528302 | -40 | -79.1666666666667 | -86.3636363636364 | 2.77777777777778 | -0.826446280991736 | -58.1168831168831 | -72.7272727272727 | -31.9148936170213 | -53.4883720930233 | 113.788098693759 | 39.5638629283489 | 3.40501792114695 | 53.1220876048462, | NORMAL-NORMAL | NORMAL-HIGH | LOW-LOW,5 | 6 | 1, | NORMAL | LOW, | NORMAL | HIGH | LOW,33 | 31 | 6 | 9 | 3.42 | 1.428 | 2.0709 | 3.6463 | 18 | 94 | 35.36 | 0.931 | 3.4 | 1.8102 | 0.7104 | 61 | 132 | 0.4403 | 0 | 0.34 | 116 | 0.91 | 15.4 | 0.12 | 2.6 | 1.96 | 40.5 | 140 | 3.8,49 | 106 | 34 | 20.52 | 8.568 | 2.6447 | 6.2064 | 169 | 112 | 97.24 | 1.9912 | 5.4 | 4.0342 | 1.6468 | 84 | 147 | 1.987 | 0.2 | 2 | 0.57 | 6.8 | 0.48 | 164 | 4.28 | 48.5 | 0.92 | 10.1 | 7.23 | 75 | 400 | 10.7,,,,,Y,,,2014-02-28,2014-02-28 18:00:00,44,52,12,20,0.06,0.3,3.42,7.14,2.495,,,,,,,,,,,,,,,,,,,,,,,,,,3.98244,75,101,61.88,,,0.05,0.3,,,,,0.37,2.22396,120,,4.9,1.49988,,1.29,7.8,0.32,2,,14.73,89.6,1.06557,577,75,138,0.57579,16.43,,,,,,,,,,,,,,,,,,,,,,,,,,,,,,,,,,,,,,,,,,,,,,,,,,,,,,,,,,,,,,,,,,,,,,,,,,,,,,,,,,,,,,,,,,,,,,,,,,,,,,,,,,,,,,,,,,,,,,,,,,,,,,,,,,,,,,,,,,,,,,,,,,,,,,,,,,,,,,,,,,,,,,,,,,,,,,,,,,,,,,,,,,,,,,,,,,,,,,,,,,,,,,,,,,,,,,,,,,,,,,,,,,,,,,,,,,,,,,,,,,,,,,54781532UCO2001,US10762,2.0,Y,2014-09-19T07:45,99004,SAFETY FOLLOW-UP VISIT WEEK 4,12 | 25 | 37 | 49 | 54,JNJ-54781532 150 mg QD,4.0,Diastolic Blood Pressure (mmHg) | Heart Rate (BEATS/MIN) | Respiratory Rate (BREATHS/MIN) | Systolic Blood Pressure (mmHg) | Weight (kg),4 | 1 | 2 | 3 | 5,72,,88,16,118,57.6,,,,,,,,,,,,,,,,,,,,,,,,,,,,,,,,,,,,,,,,,,,,,,,,,,,,,,,,,,,,,,,,,,,,,,,,,,
54781532UCO2001-002,SAFETY FOLLOW-UP VISIT WEEK 4 UNSCHEDULED 1,99004.01,99004.01-SAFETY FOLLOW-UP VISIT WEEK 4 UNSCHEDULED 1,,,,,,,,,,,,,,,,,,,,,,,,,,,,,,,,,,,,,,,,,,,,,,,,,,,,,,,,,,,,,,,,,,,,,,,,,,,,,,,,,,,,,,,,,,,,,,,,,,,,,,,,,,,,,,,,,,,,,,,,,,,,,,,,,,,,,,,,,,,,,,,,,,,,,,,,,,,,,,,,,,,,,,,,,,,,,,,,,,,,,,,,,,,,,,,,,,,,,,,,,,,,,,,,,,,,,,54781532UCO2001,2.0,Y,N,JNJ-54781532 150 mg QD,4.0,JNJ-54781532 150 mg QD,4.0,13 | 26 | 39 | 52 | 65 | 78 | 91 | 117 | 142 | 195 | 208 | 237 | 250 | 263 | 276 | 289 | 302 | 315 | 328 | 341 | 354 | 367 | 380 | 393 | 406,CHEMISTRY | HEMATOLOGY,33 | 31 | 6 | 9 | 3.42 | 1.428 | 2.07085 | 18 | 35.36 | 0.71038 | 61 | 0 | 0.34 | 116 | 0.91 | 15.4 | 0.12 | 2.6 | 1.96 | 40.5 | 140 | 3.8,49 | 106 | 34 | 20.52 | 8.568 | 2.6447 | 169 | 97.24 | 1.64679 | 84 | 0.2 | 2 | 0.57 | 6.8 | 0.48 | 164 | 4.28 | 48.5 | 0.92 | 10.1 | 7.23 | 75 | 400 | 10.7,,NORMAL | LOW | HIGH,,1,,99004.01,SAFETY FOLLOW-UP VISIT WEEK 4 UNSCHEDULED 1,2014-09-26T10:45,271,SERUM | ,,ROOM TEMPERATURE,,"SERUM Albumin (g/L) | Alkaline Phosphatase (U/L) | Alanine Aminotransferase (U/L) | Aspartate Aminotransferase (U/L) | Bilirubin (umol/L) | Blood Urea Nitrogen (mmol/L) | Calcium (mmol/L) | Creatine Kinase (U/L) | Creatinine (umol/L) | Phosphate (mmol/L) | Protein (g/L) | Basophils (x10E9/L) | Basophils/Leukocytes (%) | Eosinophils (x10E9/L) | Eosinophils/Leukocytes (%) | Hematocrit (fraction) | Hemoglobin (g/L) | Lymphocytes (x10E9/L) | Lymphocytes/Leukocytes (%) | Monocytes (x10E9/L) | Monocytes/Leukocytes (%) | Neutrophils, Segmented (x10E9/L) | Neutrophils, Segmented/Leukocytes (%) | Platelets (x10E9/L) | Leukocytes (x10E9/L)",1 | 2 | 3 | 4 | 8 | 9 | 10 | 37 | 40 | 79 | 84 | 5 | 7 | 43 | 44 | 53 | 55 | 63 | 66 | 70 | 71 | 77 | 78 | 80 | 89,37 | 42 | 13 | 19 | 7.14 | 2.3952 | 59 | 79.56 | 1.45305 | 72 | 0.06 | 0.5 | 0.24 | 2.2 | 0.36 | 121 | 3.08 | 28.6 | 0.47 | 4.3 | 6.89 | 64.2 | 558 | 10.73,4 | 5 | 2 | 3 | -0.357 | -0.0499000000000001 | 51 | -17.68 | -0.25832 | -2 | -0.02 | -0.1 | -0.06 | -0.4 | -15 | 0.26 | 4.7 | 0.11 | 1.4 | -1 | -5.40000000000001 | -94 | -0.700000000000001,10.8108108108108 | 11.9047619047619 | 15.3846153846154 | 15.7894736842105 | -5 | -2.08333333333334 | 86.4406779661017 | -22.2222222222222 | -17.7777777777778 | -2.77777777777778 | -33.3333333333333 | -20 | -25 | -18.1818181818182 | -5.55555555555555 | -12.396694214876 | 8.44155844155843 | 16.4335664335664 | 23.4042553191489 | 32.5581395348837 | -14.5137880986938 | -8.41121495327104 | -16.8458781362007 | -6.52376514445481,,,,,33 | 31 | 6 | 9 | 3.42 | 1.428 | 2.0709 | 18 | 35.36 | 0.7104 | 61 | 0 | 0.34 | 116 | 0.91 | 15.4 | 0.12 | 2.6 | 1.96 | 40.5 | 140 | 3.8,49 | 106 | 34 | 20.52 | 8.568 | 2.6447 | 169 | 97.24 | 1.6468 | 84 | 0.2 | 2 | 0.57 | 6.8 | 0.48 | 164 | 4.28 | 48.5 | 0.92 | 10.1 | 7.23 | 75 | 400 | 10.7,,,,,Y,,,2014-02-28,2014-02-28 18:00:00,41,47,15,22,0.04,0.4,6.84,6.783,2.3453,,,,,,,,,,,,,,,,,,,,,,,,,,,110,,61.88,,,0.18,1.8,,,,,0.34,,106,,,,,3.34,33.3,0.58,5.7,,5.89,58.8,1.19473,464,70,,,10.03,,,,,,,,,,,,,,,,,,,,,,,,,,,,,,,,,,,,,,,,,,,,,,,,,,,,,,,,,,,,,,,,,,,,,,,,,,,,,,,,,,,,,,,,,,,,,,,,,,,,,,,,,,,,,,,,,,,,,,,,,,,,,,,,,,,,,,,,,,,,,,,,,,,,,,,,,,,,,,,,,,,,,,,,,,,,,,,,,,,,,,,,,,,,,,,,,,,,,,,,,,,,,,,,,,,,,,,,,,,,,,,,,,,,,,,,,,,,,,,,,,,,,,,,,,,,,,,,,,,,,,,,,,,,,,,,,,,,,,,,,,,,,,,,,,,,,,,,,,,,,,,,,,,,,,,,,,,,,,,,,,,,,,,,,,,,,,,,,
54781532UCO2001-002,PSEUDO,PSEUDO,PSEUDO-PSEUDO,,,,,,,,,,,,,,,,,,,,,,,,,,,,,,,,,,,,,,,,,,,,,,,,,,,,,,,,,,,,54781532UCO2001,2.0,US10762,Y,N,JNJ-54781532 150 mg QD,4.0,6-Mercaptopurine | Azathioprine | Balsalazide | Budesonide | Ciprofloxacin | Corticosteroids (Excluding Budesonide) | Cyclosporine | Mesalamine | Methotrexate | Metronidazole | Mycophenolate Mofetil | Olsalazine | Rifaximin | Sirolimus | Sulfasalazine | Tacrolimus,,1 | 2 | 3 | 4 | 5 | 6 | 7 | 8 | 9 | 10 | 11 | 12 | 13 | 14 | 15 | 16,Never Used,Used > 2 years,Never Used,Never Used,Never Used,Used > 2 years,Never Used,Used <= 1 year,Never Used,Never Used,Never Used,Never Used,Never Used,Never Used,Used <= 1 year,Never Used,,,,,,,,,,,,,,,,,,,,,,,,,,,,,,,,,,,,,,,,,,,,,,,,,,,,,,,,,,,,,,,,,,,,,,,,,,,,,,,,,,,,,,,,,,,,,,,,,,,,,,,,,,,,,,,,,,,,,54781532UCO2001,Y,N,30000 | 30002 | 30004 | 30008 | 30012 | 30016 | 30020 | 30024 | 30028 | 30032 | 99004,WEEK 0 | WEEK 2 | WEEK 4 | WEEK 8 | WEEK 12 | WEEK 16 | WEEK 20 | WEEK 24 | WEEK 28 | WEEK 32 | FINAL SAFETY FOLLOW-UP,Cumulative dose by visits (mg) | Drug Compliance | Duration of follow up (weeks) | Duration of Exposure (weeks),JNJ-54781532 150 mg QD,4,2100 | 2700 | 4200 | 3900 | 4950 | 4500 | 4350 | 5100,Y,8.57142857142857 | 17.1428571428571 | 34.4285714285714,8.57142857142857 | 17.2857142857143 | 34.5714285714286 | 37.7142857142857,,,,,,,,,,,,,,,,,,,,,,,,,,,,,,,,,,,,,,,,,,,,,,,,,,,,,,,,,,,,,,,,,,,,,,,,,,,,,,,,,,,,,,,,,,,,,,,,,,,,,,,,,,,,,,,,,,,,,,,,,,,,,,,,,,,,,,,,,,,,,,,,,,,,,,,,,,,,,,,,,,,,,,,,,,,,,,,,,,,,,,,,,,,,,,,,,,,3.0,2.0,1.0,3.0,3.0,2.0,2.0,3.0,2.0,1.0,3.0,2.0,1.0,3.0,,,JNJ-54781532 150 mg QD,N,Y,9.0,N,,,,,,,,,,,,,,,,,,,,,,,,,,54781532UCO2001,US10762,2.0,31.0,YEARS,< 40 years,1.0,F,USA,North America,1.0,WHITE,Caucasian,1.0,Caucasian,1.0,Y,Y,N,JNJ-54781532 150 mg QD,150mg_QD,JNJ-54781532 150 mg QD,4.0,JNJ-54781532 150 mg QD,4.0,JNJ-54781532 150 mg QD,4.0,JNJ-54781532 150 mg QD,4.0,,1.3883616e+18,1.388397e+18,1.4090976e+18,,1.3883616e+18,35400.0,1.388397e+18,1.3934592e+18,61200.0,1.3935204e+18,1.3935456e+18,64800.0,1.3936104e+18,1.4090976e+18,,,1.3935456e+18,61.0,1.3987296e+18,121.0,139.7,54.0,< 75 kg,1.0,NEVER,8.0,> 5 years to <= 15 years,2.0,LIMITED TO LEFT SIDE OF COLON,Absent,10.0,>= 9,2.0,Moderate,1.0,430.8,344039.0,7.28,>= 3 mg/L,2.0,N,N,N,N,N,Y,,,Y,,Y,,N,Y,NOT HISPANIC OR LATINO,1981-12-28 00:00:00,2013-12-30T09:50,,,,21916.0,"MALIK, PRAMOD",,,,,,,,,,,,,,,,,,,,,,,,,,,,,,,,,,,,,,,,,,,,,,,,,,,,,,,,,,,,,,,,,,,,,,,,,,,,,,,,,,,,,,,,,,,,,,,,,,,,,,,,,,,,,,,,,,,,
54781532UCO2001-003,SCREENING,10000,10000-SCREENING,,,,,,,,,,,,,,,,,,,,,,,,,,,,,,,,,,,,,,,,,,,,,,,,,,,,,,,,,,,,,,,,,,,,,,,,,,,,,,,,,,,,,,54781532UCO2001,3.0,US00920,37.0,YEARS,< 40 years,1.0,M,USA,North America,1.0,WHITE,Caucasian,1.0,94.3,>= 75 kg,2.0,1.0,<= 5 years,1.0,EXTENSIVE,Absent,9.0,>= 9,2.0,Moderate,1.0,2.0,3.0,3.51,>= 3 mg/L,2.0,Y,Y,N,N,Y,N,Y,N,N,Y,N,JNJ-54781532 25 mg QD,2.0,8 | 4 | 7 | 2 | 3 | 1,Partial Mayo Clinical Remission | Physicians Global Assessment | Partial Mayo Score | Rectal Bleeding | Worse Rectal Bleeding | Stool Frequency,22 | 4 | 8 | 2 | 3 | 1,,Derived | ,,Y,,,2013-12-17 00:00:00,-22,Y,2014-03-04,Y,Y,N,N,,,,,,,,,,,,,,N,2.0,7,2.0,2.0,,,,3.0,,,,,,,,,,,,,,,,,,,,,,,,,,,,,,,,,,,,,,,,,,,,,54781532UCO2001,3.0,Y,N,JNJ-54781532 25 mg QD,2.0,JNJ-54781532 25 mg QD,2.0,1 | 10 | 19 | 28 | 37 | 46 | 55 | 77 | 86 | 95 | 116 | 137 | 146 | 155 | 168 | 178 | 188 | 198 | 208 | 218 | 228 | 238 | 248 | 258 | 268 | 278 | 288 | 298,CHEMISTRY | HEMATOLOGY,33 | 31 | 6 | 11 | 3.42 | 1.428 | 2.07085 | 18 | 94 | 44.2 | 3.4 | 0.71038 | 61 | 132 | 0 | 0.39 | 127 | 0.91 | 15.4 | 0.12 | 2.6 | 1.96 | 40.5 | 140 | 3.8,49 | 129 | 43 | 36 | 20.52 | 8.568 | 2.6447 | 198 | 112 | 106.08 | 5.4 | 1.64679 | 84 | 147 | 0.2 | 2 | 0.57 | 6.8 | 0.54 | 181 | 4.28 | 48.5 | 0.92 | 10.1 | 7.23 | 75 | 400 | 10.7,,NORMAL | HIGH | LOW,,2,,10000,SCREENING,2013-12-17T15:31,-22,SERUM | ,,ROOM TEMPERATURE,,"SERUM Albumin (g/L) | Alkaline Phosphatase (U/L) | Alanine Aminotransferase (U/L) | Aspartate Aminotransferase (U/L) | Bilirubin (umol/L) | Blood Urea Nitrogen (mmol/L) | Calcium (mmol/L) | Creatine Kinase (U/L) | Chloride (mmol/L) | Creatinine (umol/L) | Potassium (mmol/L) | Phosphate (mmol/L) | Protein (g/L) | Sodium (mmol/L) | Basophils (x10E9/L) | Basophils/Leukocytes (%) | Eosinophils (x10E9/L) | Eosinophils/Leukocytes (%) | Hematocrit (fraction) | Hemoglobin (g/L) | Lymphocytes (x10E9/L) | Lymphocytes/Leukocytes (%) | Monocytes (x10E9/L) | Monocytes/Leukocytes (%) | Neutrophils, Segmented (x10E9/L) | Neutrophils, Segmented/Leukocytes (%) | Platelets (x10E9/L) | Leukocytes (x10E9/L)",1 | 2 | 3 | 4 | 8 | 9 | 10 | 37 | 39 | 40 | 59 | 79 | 84 | 86 | 5 | 7 | 43 | 44 | 53 | 55 | 63 | 66 | 70 | 71 | 77 | 78 | 80 | 89,,,,,,,,33 | 31 | 6 | 11 | 3.42 | 1.428 | 2.0709 | 18 | 94 | 44.2 | 3.4 | 0.7104 | 61 | 132 | 0 | 0.39 | 127 | 0.91 | 15.4 | 0.12 | 2.6 | 1.96 | 40.5 | 140 | 3.8,49 | 129 | 43 | 36 | 20.52 | 8.568 | 2.6447 | 198 | 112 | 106.08 | 5.4 | 1.6468 | 84 | 147 | 0.2 | 2 | 0.57 | 6.8 | 0.54 | 181 | 4.28 | 48.5 | 0.92 | 10.1 | 7.23 | 75 | 400 | 10.7,Y,,,,,,Y,2014-03-04,2014-03-04 08:45:00,37,114,49,36,0.11,2.3,3.42,3.927,2.2954,,,,,,,,,,,,,,,,,,,,,,,,,,,103,106,97.24,,,0.49,10.3,,,,,0.33,,97,,4.2,,,1.25,26.1,0.46,9.7,,2.47,51.7,1.2916,418,69,143,,4.77,,,,,,,,,,,,,,,,,,,,,,,,,,,,,,,,,,,,,,,,,,,,,,,,,,,,,,,,,,,,,,,,,,,,,,,,,,,,,,,,,,,,,,,,,,,,,,,,,,,,,,,,,,,,,,,,,,,,,,,,,,,,,,,,,,,,,,,,,,,,,,,,,,,,,,,,,,,,,,,,,,,,,,,,,,,,,,,,,,,,,,,,,,,,,,,,,,,,,,,,,,,,,,,,,,,,,,,,,,,,,,,,,,,,,,,,,,,,,,,,,,,,,,54781532UCO2001,US00920,3.0,Y,2013-12-17T15:20,10000,SCREENING,1 | 11 | 20 | 29 | 38,JNJ-54781532 25 mg QD,2.0,Diastolic Blood Pressure (mmHg) | Heart Rate (BEATS/MIN) | Respiratory Rate (BREATHS/MIN) | Systolic Blood Pressure (mmHg) | Weight (kg),4 | 1 | 2 | 3 | 5,92,,80,16,150,95.7,,,,,,,,,,,,,,,,,,,,,,,,,,,,,,,,,,,,,,,,,,,,,,,,,,,,,,,,,,,,,,,,,,,,,,,,,,
54781532UCO2001-003,BASELINE,29000,29000-BASELINE,,,,,,,,,,,,,,,,,,,,,,,,,,,,,,,,,,,,,,,,,,,,,,,,,,,,,,,,,,,,,,,,,,,,,,,,,,,,,,,,,,,,,,54781532UCO2001,3.0,US00920,37.0,YEARS,< 40 years,1.0,M,USA,North America,1.0,WHITE,Caucasian,1.0,94.3,>= 75 kg,2.0,1.0,<= 5 years,1.0,EXTENSIVE,Absent,9.0,>= 9,2.0,Moderate,1.0,2.0,3.0,3.51,>= 3 mg/L,2.0,Y,Y,N,N,Y,N,Y,N,N,Y,N,JNJ-54781532 25 mg QD,2.0,27 | 29 | 6 | 5 | 19 | 20 | 22 | 21 | 23 | 28 | 17 | 24 | 25 | 26 | 16 | 18 | 14 | 15 | 10 | 11 | 12 | 13 | 9,Calprotectin Score | CRP Score | Endoscopy Central Reading | Endoscopy Local Reading | IBDQ Bowel Dimension | IBDQ Emotional Dimension | IBDQ Social Dimension | IBDQ Systemic Dimension | IBDQ Total | Lactoferrin Score | Mayo Score | Sensitivity Analysis 3 | Sensitivity Analysis 4 | Partial Mayo Clinical Remission | Physicians Global Assessment | Partial Mayo Score | Rectal Bleeding | Worse Rectal Bleeding | Evaluator 1 | Evaluator 2 | Evaluator 3 | Stool Frequency | UCEIS Score,31 | 33 | 6 | 5 | 9 | 10 | 12 | 11 | 13 | 32 | 7 | 15 | 16 | 22 | 4 | 8 | 2 | 3 | 28 | 29 | 30 | 1 | 24,, | Derived,Y,Y,8232.75 | 3.51 | 2 | 30 | 45 | 28 | 17 | 120 | 1e+06 | 9 | 7 | 3,,2014-01-08 | 2013-12-23,1 | -16,Y,2014-03-04,Y,Y,N,N,8232.75,3.51,2,2.0,30,45,28,17,120,1000000,9,9,7,N,2.0,7,2.0,2.0,3,2,3,3.0,7,,,,,,,,,,,,,54781532UCO2001,3.0,Y,N,JNJ-54781532 25 mg QD,2.0,JNJ-54781532 25 mg QD,2.0,1.0,1.0,Interpretation,2013-12-17T16:32,-22.0,10000.0,SCREENING,Y,Y,Y,NORMAL,,,,,,,,,,,,,54781532UCO2001,3.0,Y,N,JNJ-54781532 25 mg QD,2.0,JNJ-54781532 25 mg QD,2.0,2 | 11 | 20 | 29 | 38 | 47 | 56 | 64 | 68 | 72 | 73 | 78 | 87 | 96 | 104 | 105 | 112 | 117 | 125 | 129 | 133 | 138 | 147 | 156 | 164 | 169 | 179 | 189 | 199 | 209 | 219 | 229 | 239 | 249 | 259 | 269 | 279 | 289 | 299 | 308 | 311 | 314 | 317 | 320 | 323 | 326 | 329 | 332 | 335 | 338 | 341 | 344 | 347 | 350 | 353 | 356 | 359 | 362 | 365 | 368 | 371 | 374 | 377 | 380 | 383 | 386 | 389 | 392 | 393 | 394 | 395 | 396 | 397,CHEMISTRY | HEMATOLOGY | IMMUNOLOGY,33 | 31 | 6 | 11 | 3.42 | 1.428 | 2.07085 | 3.879 | 18 | 94 | 44.2 | 1.41695 | 0.74994 | 3.4 | 2.09466 | 0 | 0.71038 | 61 | 132 | 0.5645 | 0.39 | 127 | 0.91 | 15.4 | 0.12 | 2.6 | 1.96 | 40.5 | 140 | 3.8 | 0.084 | 5 | 0.08 | 0.723 | 56 | 0.404 | 0.22 | 13,49 | 129 | 43 | 36 | 20.52 | 8.568 | 2.6447 | 50 | 6.82704 | 198 | 112 | 106.08 | 2.08375 | 2.87 | 1.60332 | 5.4 | 4.88754 | 7.24 | 1.64679 | 84 | 147 | 3.62409 | 0.2 | 2 | 0.57 | 6.8 | 0.54 | 181 | 4.28 | 48.5 | 0.92 | 10.1 | 7.23 | 75 | 400 | 10.7 | 0.724 | 26 | 0.616 | 22 | 2.737 | 86 | 1.612 | 58 | 1.129 | 39, | NEGATIVE | NON-REACTIVE,NORMAL | HIGH |  | LOW | ABNORMAL,,2,Y | ,30000 | 10000.01 | 10000,WEEK 0 | SCREENING UNSCHEDULED 1 | SCREENING,2014-01-08T13:15 | 2013-12-23T08:00 | 2013-12-17T15:31 | 2013-12-23T10:22,1 | -16 | -22,SERUM |  | STOOL | BLOOD, | ASSAY YIELDING BY MASS RESULTS | ASSAY YIELDING BY VOLUME RESULTS | HIGH SENSITIVITY ASSAY | CALCULATED | FLOW CYTOMETRY | QUANTIFERON TB,ROOM TEMPERATURE | FROZEN,N | ,"SERUM Albumin (g/L) | Alkaline Phosphatase (U/L) | Alanine Aminotransferase (U/L) | Aspartate Aminotransferase (U/L) | Bilirubin (umol/L) | Blood Urea Nitrogen (mmol/L) | Calcium (mmol/L) | STOOL Calprotectin (ug/g) | STOOL Calprotectin (ug/L) | STOOL Clostridium difficile Toxin | Cholesterol (mmol/L) | Creatine Kinase (U/L) | Chloride (mmol/L) | Creatinine (umol/L) | Creatinine Clearance (mL/s) | C Reactive Protein (mg/L) | HDL Cholesterol (mmol/L) | Potassium (mmol/L) | LDL Cholesterol (mmol/L) | STOOL Lactoferrin (ug/g) | STOOL Lactoferrin (ug/L) | Phosphate (mmol/L) | Protein (g/L) | Sodium (mmol/L) | Triglycerides (mmol/L) | Basophils (x10E9/L) | Basophils/Leukocytes (%) | Eosinophils (x10E9/L) | Eosinophils/Leukocytes (%) | Hematocrit (fraction) | Hemoglobin (g/L) | Lymphocytes (x10E9/L) | Lymphocytes/Leukocytes (%) | Monocytes (x10E9/L) | Monocytes/Leukocytes (%) | Neutrophils, Segmented (x10E9/L) | Neutrophils, Segmented/Leukocytes (%) | Platelets (x10E9/L) | Leukocytes (x10E9/L) | CD16 CD56 (x10E9/L) | CD16 CD56/Lymphocytes (%) | CD19 (x10E9/L) | CD19/Lymphocytes (%) | CD3 (x10E9/L) | CD3/Lymphocytes (%) | CD4 (x10E9/L) | BLOOD CD4 Central Memory T Cells (x10E6/L) | BLOOD CD4 Central Memory T Cells/Total Cells (%) | BLOOD CD4 Effector Memory T Cells (x10E6/L) | BLOOD CD4 Effector Memory T Cells/Total Cells (%) | CD4/Lymphocytes (%) | BLOOD CD4 Naive T Cells (x10E6/L) | BLOOD CD4 Naive T Cells/Total Cells (%) | CD4 Type 1 Helper T Cells/CD4 (%) | CD4 Type 1 Helper T Cells (x10E6/L) | BLOOD CD4 Regulatory T Cells/CD4 (%) | BLOOD CD4 Regulatory T Cells (x10E6/L) | CD8 (x10E9/L) | BLOOD CD8 Central Memory T Cells (x10E6/L) | BLOOD CD8 Central Memory T Cells/Total Cells (%) | BLOOD CD8 Effector Memory T Cells (x10E6/L) | BLOOD CD8 Effector Memory T Cells/Total Cells (%) | CD8/Lymphocytes (%) | BLOOD CD8 Naive T Cells (x10E6/L) | BLOOD CD8 Naive T Cells/Total Cells (%) | BLOOD CD8 Term Diff Eff Mem Cells (x10E6/L) | BLOOD CD8 Term Diff Eff Mem Cells/Total Cells (%) | SERUM Hepatitis B Virus Core Antibody | Hepatitis B Virus Surface Antibody | Hepatitis B Virus Surface Antigen | Hepatitis C Virus Antibody | HIV-1/2 Antibody | M. tuberculosis IFN Gamma Response",1 | 2 | 3 | 4 | 8 | 9 | 10 | 11 | 35 | 36 | 37 | 39 | 40 | 41 | 42 | 54 | 59 | 60 | 62 | 79 | 84 | 86 | 87 | 5 | 7 | 43 | 44 | 53 | 55 | 63 | 66 | 70 | 71 | 77 | 78 | 80 | 89 | 12 | 13 | 14 | 15 | 16 | 17 | 18 | 19 | 20 | 21 | 22 | 23 | 24 | 25 | 26 | 27 | 28 | 29 | 30 | 31 | 32 | 33 | 34 | 47 | 48 | 49 | 51 | 56 | 74,38 | 122 | 42 | 25 | 5.13 | 4.284 | 2.32035 | 3293.1 | 5.0427 | 109 | 103 | 106.08 | 2.05041 | 3.51 | 0.82752 | 3.7 | 3.59454 | 0.9687 | 68 | 140 | 1.37738 | 0.06 | 0.8 | 0.52 | 6.7 | 0.32 | 96 | 1.46 | 19 | 0.56 | 7.2 | 5.08 | 66.1 | 461 | 7.69 | 0.211 | 16.4 | 0.144 | 11.2 | 0.925 | 71.8 | 0.68 | 264.59 | 38.91 | 157.69 | 23.19 | 52.8 | 256.22 | 37.68 | 41.38 | 281.38 | 7.71 | 52.43 | 0.235 | 19.98 | 8.5 | 95.32 | 40.56 | 18.2 | 73.93 | 31.46 | 45.8 | 19.49,,,,, | NORMAL, | NORMAL,33 | 31 | 6 | 11 | 3.42 | 1.428 | 2.0709 | 3.879 | 18 | 94 | 44.2 | 1.417 | 0.7499 | 3.4 | 2.0947 | 0 | 0.7104 | 61 | 132 | 0.5645 | 0.39 | 127 | 0.91 | 15.4 | 0.12 | 2.6 | 1.96 | 40.5 | 140 | 3.8 | 0.084 | 5 | 0.08 | 0.723 | 56 | 0.404 | 0.22 | 13,49 | 129 | 43 | 36 | 20.52 | 8.568 | 2.6447 | 50 | 6.827 | 198 | 112 | 106.08 | 2.0838 | 2.87 | 1.6033 | 5.4 | 4.8875 | 7.24 | 1.6468 | 84 | 147 | 3.6241 | 0.2 | 2 | 0.57 | 6.8 | 0.54 | 181 | 4.28 | 48.5 | 0.92 | 10.1 | 7.23 | 75 | 400 | 10.7 | 0.724 | 26 | 0.616 | 22 | 2.737 | 86 | 1.612 | 58 | 1.129 | 39,Y,,,,,Y,Y,2014-03-04,2014-03-04 08:45:00,38,122,42,25,0.06,0.8,5.13,4.284,2.32035,8232.75 | 3293.1,0.211,16.4,0.144,11.2,0.925,71.8,0.68,264.59 | 38.91,157.69 | 23.19,52.8,256.22,37.68,41.38,281.38,7.71,52.43,0.235,19.98 | 8.5,95.32 | 40.56,18.2,73.93,31.46,45.8 | 19.49,NEGATIVE,5.0427,109,103,106.08,2.05041,3.51,0.52,6.7,NEGATIVE,POSITIVE,NEGATIVE,NEGATIVE,0.32,0.82752,96,NON-REACTIVE,3.7,3.59454,>800 | >800000,1.46,19,0.56,7.2,NEGATIVE,5.08,66.1,0.9687,461,68,140,1.37738,7.69,,,,,,,,,,,,,,,,,,,,,,,,,,,,,,,,,,,,,,,,,,,,,,,,,,,,,,,,,,,,,,,,,,,,,,,,,,,,,,,,,,,,,,,,,,,,,,,,,,,,,,,,,,,,,,,,,,,,,,,,,,,,,,,,,,,,,,,,,,,,,,,,,,,,,,,,,,,,,,,,,,,,,,,,,,,,,,,,,,,,,,,,,,,,,,,,,,,,,,,,,,,,,,,,,,,,,,,,,,,,,,,,,,,,,,,,,,,,,,,,,,,,,,54781532UCO2001,US00920,3.0,Y,2014-01-08T13:05 | 2013-12-17T15:20,30000 | 10000,WEEK 0 | SCREENING,2 | 10 | 12 | 21 | 30 | 39,JNJ-54781532 25 mg QD,2.0,Diastolic Blood Pressure (mmHg) | Height (cm) | Heart Rate (BEATS/MIN) | Respiratory Rate (BREATHS/MIN) | Systolic Blood Pressure (mmHg) | Weight (kg),4 | 6 | 1 | 2 | 3 | 5,90,180.3,72,16,130,94.3,,,,,,,,,,,,,,,,,,,,,,,,,,,,,,,,,,,,,,,,,,,,,,,,,,,,,,,,,,,,,,,,,,,,,,,,,,
54781532UCO2001-003,WEEK 2,30002,30002-WEEK 2,,,,,,,,,,,,,,,,,,,,,,,,,,,,,,,,,,,,,,,,,,,,,,,,,,,,,,,,,,,,,,,,,,,,,,,,,,,,,,,,,,,,,,54781532UCO2001,3.0,US00920,37.0,YEARS,< 40 years,1.0,M,USA,North America,1.0,WHITE,Caucasian,1.0,94.3,>= 75 kg,2.0,1.0,<= 5 years,1.0,EXTENSIVE,Absent,9.0,>= 9,2.0,Moderate,1.0,2.0,3.0,3.51,>= 3 mg/L,2.0,Y,Y,N,N,Y,N,Y,N,N,Y,N,JNJ-54781532 25 mg QD,2.0,37 | 35 | 36 | 33 | 34 | 31 | 32 | 30,CRP Score | Partial Mayo Clinical Remission | Partial Mayo Clinical Response | Physicians Global Assessment | Partial Mayo Score | Rectal Bleeding | Worse Rectal Bleeding | Stool Frequency,33 | 22 | 29 | 4 | 8 | 2 | 3 | 1,, | Derived,,Y,3.51 | 2 | 7 | 3,-1.55 | 0,2014-01-23 00:00:00,16,Y,2014-03-04,Y,Y,N,N,,1.96,,,,,,,,,,,,N,2.0,7,2.0,2.0,,,,3.0,,N,,,,,,,,,,,,,,,,,,,,,,,,,,,,,,,,,,,,,,,,,,,54781532UCO2001,3.0,Y,N,JNJ-54781532 25 mg QD,2.0,JNJ-54781532 25 mg QD,2.0,3 | 12 | 21 | 30 | 39 | 48 | 57 | 79 | 88 | 97 | 106 | 118 | 139 | 148 | 157 | 170 | 180 | 190 | 200 | 210 | 220 | 230 | 240 | 250 | 260 | 270 | 280 | 290 | 300,CHEMISTRY | HEMATOLOGY,33 | 31 | 6 | 11 | 3.42 | 1.428 | 2.07085 | 18 | 94 | 44.2 | 3.4 | 0.71038 | 61 | 132 | 0 | 0.39 | 127 | 0.91 | 15.4 | 0.12 | 2.6 | 1.96 | 40.5 | 140 | 3.8,49 | 129 | 43 | 36 | 20.52 | 8.568 | 2.6447 | 198 | 112 | 106.08 | 2.87 | 5.4 | 1.64679 | 84 | 147 | 0.2 | 2 | 0.57 | 6.8 | 0.54 | 181 | 4.28 | 48.5 | 0.92 | 10.1 | 7.23 | 75 | 400 | 10.7,,NORMAL | LOW | HIGH,,2,,30002,WEEK 2,2014-01-23T07:38,16,SERUM | , | HIGH SENSITIVITY ASSAY,ROOM TEMPERATURE,,"SERUM Albumin (g/L) | Alkaline Phosphatase (U/L) | Alanine Aminotransferase (U/L) | Aspartate Aminotransferase (U/L) | Bilirubin (umol/L) | Blood Urea Nitrogen (mmol/L) | Calcium (mmol/L) | Creatine Kinase (U/L) | Chloride (mmol/L) | Creatinine (umol/L) | C Reactive Protein (mg/L) | Potassium (mmol/L) | Phosphate (mmol/L) | Protein (g/L) | Sodium (mmol/L) | Basophils (x10E9/L) | Basophils/Leukocytes (%) | Eosinophils (x10E9/L) | Eosinophils/Leukocytes (%) | Hematocrit (fraction) | Hemoglobin (g/L) | Lymphocytes (x10E9/L) | Lymphocytes/Leukocytes (%) | Monocytes (x10E9/L) | Monocytes/Leukocytes (%) | Neutrophils, Segmented (x10E9/L) | Neutrophils, Segmented/Leukocytes (%) | Platelets (x10E9/L) | Leukocytes (x10E9/L)",1 | 2 | 3 | 4 | 8 | 9 | 10 | 37 | 39 | 40 | 42 | 59 | 79 | 84 | 86 | 5 | 7 | 43 | 44 | 53 | 55 | 63 | 66 | 70 | 71 | 77 | 78 | 80 | 89,38 | 122 | 42 | 25 | 5.13 | 4.284 | 2.32035 | 109 | 103 | 106.08 | 3.51 | 3.7 | 0.9687 | 68 | 140 | 0.06 | 0.8 | 0.52 | 6.7 | 0.32 | 96 | 1.46 | 19 | 0.56 | 7.2 | 5.08 | 66.1 | 461 | 7.69,1 | -24 | -22 | -8 | 0 | 0.357 | 0.0748499999999996 | -18 | 2 | -8.83999999999999 | -1.55 | 0.5 | 0.29061 | -0.06 | -0.8 | -0.41 | -4.7 | -3 | 0.86 | 25 | -0.3 | -2.2 | -2.49 | -17.1 | 40 | -2.41,2.63157894736842 | -19.672131147541 | -52.3809523809524 | -32 | 0 | 8.33333333333334 | 3.22580645161289 | -16.5137614678899 | 1.94174757281553 | -8.33333333333332 | -44.1595441595442 | 13.5135135135135 | 30 | 2.94117647058824 | -100 | -78.8461538461539 | -70.1492537313433 | -3.125 | 58.9041095890411 | 131.578947368421 | -53.5714285714286 | -30.5555555555556 | -49.0157480314961 | -25.8698940998487 | 8.67678958785249 | -31.3394018205462,,,,,33 | 31 | 6 | 11 | 3.42 | 1.428 | 2.0709 | 18 | 94 | 44.2 | 3.4 | 0.7104 | 61 | 132 | 0 | 0.39 | 127 | 0.91 | 15.4 | 0.12 | 2.6 | 1.96 | 40.5 | 140 | 3.8,49 | 129 | 43 | 36 | 20.52 | 8.568 | 2.6447 | 198 | 112 | 106.08 | 2.87 | 5.4 | 1.6468 | 84 | 147 | 0.2 | 2 | 0.57 | 6.8 | 0.54 | 181 | 4.28 | 48.5 | 0.92 | 10.1 | 7.23 | 75 | 400 | 10.7,Y, | Y,,,Y,,Y,2014-03-04,2014-03-04 08:45:00,39,98,20,17,0,0,5.13,4.641,2.3952,,,,,,,,,,,,,,,,,,,,,,,,,,,91,105,97.24,,1.96,0.11,2,,,,,0.32,,93,,4.2,,,2.32,44,0.26,5,,2.59,49,1.25931,501,70,140,,5.28,,,,,,,,,,,,,,,,,,,,,,,,,,,,,,,,,,,,,,,,,,,,,,,,,,,,,,,,,,,,,,,,,,,,,,,,,,,,,,,,,,,,,,,,,,,,,,,,,,,,,,,,,54781532UCO2001,PC,1 | 2 | 3 | 4,JNJ-54781532,ng/mL,PLASMA,2014-01-23,2014-01-23 07:38:00 | 2014-01-23 08:30:00 | 2014-01-23 09:00:00 | 2014-01-23 11:00:00,27480 | 30600 | 32400 | 39600,16.0,PREDOSE | 30min | 1h | 3h,-0.001 | 0.5 | 1 | 3,Y,,Y,37.0,USA,WHITE,M,JNJ-54781532 25 mg QD,2.0,JNJ-54781532 25 mg QD,2.0,,1.21 | 5.52 | 25 | 31.2,,,,,,,,,,,,,,,,,,,,,,,,,,,,,,,,,,,,,,,,,,,,,,,,,,,,,,,,,,,,,,,,,,,,,,,,,,,,,,,,,,,,,,,,,,,,,,,,,,,,,,,,,,,,,,,,,,,,,54781532UCO2001,US00920,3.0,Y,2014-01-23T07:49,30002,WEEK 2,3 | 13 | 22 | 31,JNJ-54781532 25 mg QD,2.0,Diastolic Blood Pressure (mmHg) | Heart Rate (BEATS/MIN) | Respiratory Rate (BREATHS/MIN) | Systolic Blood Pressure (mmHg),4 | 1 | 2 | 3,98,,64,16,130,,,,,,,,,,,,,,,,,,,,,,,,,,,,,,,,,,,,,,,,,,,,,,,,,,,,,,,,,,,,,,,,,,,,,,,,,,,
54781532UCO2001-003,WEEK 4,30004,30004-WEEK 4,,,,,,,,,,,,,,,,,,,,,,,,,,,,,,,,,,,,,,,,,,,,,,,,,,,,,,,,,,,,,,,,,,,,,,,,,,,,,,,,,,,,,,54781532UCO2001,3.0,US00920,37.0,YEARS,< 40 years,1.0,M,USA,North America,1.0,WHITE,Caucasian,1.0,94.3,>= 75 kg,2.0,1.0,<= 5 years,1.0,EXTENSIVE,Absent,9.0,>= 9,2.0,Moderate,1.0,2.0,3.0,3.51,>= 3 mg/L,2.0,Y,Y,N,N,Y,N,Y,N,N,Y,N,JNJ-54781532 25 mg QD,2.0,45 | 43 | 44 | 41 | 42 | 39 | 40 | 38,CRP Score | Partial Mayo Clinical Remission | Partial Mayo Clinical Response | Physicians Global Assessment | Partial Mayo Score | Rectal Bleeding | Worse Rectal Bleeding | Stool Frequency,33 | 22 | 29 | 4 | 8 | 2 | 3 | 1,, | Derived,,Y,3.51 | 2 | 7 | 3,4.32 | 0,2014-02-05 00:00:00,29,Y,2014-03-04,Y,Y,N,N,,7.83,,,,,,,,,,,,N,2.0,7,2.0,2.0,,,,3.0,,N,,,,,,,,,,,,,,,,,,,,,,,,,,,,,,,,,,,,,,,,,,,54781532UCO2001,3.0,Y,N,JNJ-54781532 25 mg QD,2.0,JNJ-54781532 25 mg QD,2.0,4 | 13 | 22 | 31 | 40 | 49 | 58 | 80 | 89 | 98 | 107 | 119 | 140 | 149 | 158 | 171 | 181 | 191 | 201 | 211 | 221 | 231 | 241 | 251 | 261 | 271 | 281 | 291 | 301,CHEMISTRY | HEMATOLOGY,33 | 31 | 6 | 11 | 3.42 | 1.428 | 2.07085 | 18 | 94 | 44.2 | 3.4 | 0.71038 | 61 | 132 | 0 | 0.39 | 127 | 0.91 | 15.4 | 0.12 | 2.6 | 1.96 | 40.5 | 140 | 3.8,49 | 129 | 43 | 36 | 20.52 | 8.568 | 2.6447 | 198 | 112 | 106.08 | 2.87 | 5.4 | 1.64679 | 84 | 147 | 0.2 | 2 | 0.57 | 6.8 | 0.54 | 181 | 4.28 | 48.5 | 0.92 | 10.1 | 7.23 | 75 | 400 | 10.7,,NORMAL | HIGH | LOW,,2,,30004,WEEK 4,2014-02-05T07:45,29,SERUM | , | HIGH SENSITIVITY ASSAY,ROOM TEMPERATURE,,"SERUM Albumin (g/L) | Alkaline Phosphatase (U/L) | Alanine Aminotransferase (U/L) | Aspartate Aminotransferase (U/L) | Bilirubin (umol/L) | Blood Urea Nitrogen (mmol/L) | Calcium (mmol/L) | Creatine Kinase (U/L) | Chloride (mmol/L) | Creatinine (umol/L) | C Reactive Protein (mg/L) | Potassium (mmol/L) | Phosphate (mmol/L) | Protein (g/L) | Sodium (mmol/L) | Basophils (x10E9/L) | Basophils/Leukocytes (%) | Eosinophils (x10E9/L) | Eosinophils/Leukocytes (%) | Hematocrit (fraction) | Hemoglobin (g/L) | Lymphocytes (x10E9/L) | Lymphocytes/Leukocytes (%) | Monocytes (x10E9/L) | Monocytes/Leukocytes (%) | Neutrophils, Segmented (x10E9/L) | Neutrophils, Segmented/Leukocytes (%) | Platelets (x10E9/L) | Leukocytes (x10E9/L)",1 | 2 | 3 | 4 | 8 | 9 | 10 | 37 | 39 | 40 | 42 | 59 | 79 | 84 | 86 | 5 | 7 | 43 | 44 | 53 | 55 | 63 | 66 | 70 | 71 | 77 | 78 | 80 | 89,38 | 122 | 42 | 25 | 5.13 | 4.284 | 2.32035 | 109 | 103 | 106.08 | 3.51 | 3.7 | 0.9687 | 68 | 140 | 0.06 | 0.8 | 0.52 | 6.7 | 0.32 | 96 | 1.46 | 19 | 0.56 | 7.2 | 5.08 | 66.1 | 461 | 7.69,0 | -7 | -13 | 1 | 1.71 | -0.357 | 0.0498999999999996 | -5 | -8.83999999999999 | 4.32 | 0.8 | 0.19374 | 2 | 0.01 | 0.6 | -0.11 | 0.899999999999999 | -0.38 | -0.0700000000000001 | -1.75 | -4.3 | -54 | -2.31,0 | -5.73770491803279 | -30.952380952381 | 4 | 33.3333333333333 | -8.33333333333334 | 2.15053763440859 | -4.58715596330275 | -8.33333333333332 | 123.076923076923 | 21.6216216216216 | 20 | 2.94117647058824 | 0.714285714285714 | 16.6666666666667 | 75 | -21.1538461538462 | 13.4328358208955 | 3.125 | -5.20833333333333 | -26.027397260274 | 5.26315789473684 | -12.5 | 27.7777777777778 | -34.4488188976378 | -6.50529500756429 | -11.7136659436009 | -30.0390117035111,,,,,33 | 31 | 6 | 11 | 3.42 | 1.428 | 2.0709 | 18 | 94 | 44.2 | 3.4 | 0.7104 | 61 | 132 | 0 | 0.39 | 127 | 0.91 | 15.4 | 0.12 | 2.6 | 1.96 | 40.5 | 140 | 3.8,49 | 129 | 43 | 36 | 20.52 | 8.568 | 2.6447 | 198 | 112 | 106.08 | 2.87 | 5.4 | 1.6468 | 84 | 147 | 0.2 | 2 | 0.57 | 6.8 | 0.54 | 181 | 4.28 | 48.5 | 0.92 | 10.1 | 7.23 | 75 | 400 | 10.7,Y,,,,Y,,Y,2014-03-04,2014-03-04 08:45:00,38,115,29,26,0.07,1.4,6.84,3.927,2.37025,,,,,,,,,,,,,,,,,,,,,,,,,,,104,103,97.24,,7.83,0.41,7.6,,,,,0.33,,91,,4.5,,,1.08,20,0.49,9.2,,3.33,61.8,1.16244,407,70,141,,5.38,,,,,,,,,,,,,,,,,,,,,,,,,,,,,,,,,,,,,,,,,,,,,,,,,,,,,,,,,,,,,,,,,,,,,,,,,,,,,,,,,,,,,,,,,,,,,,,,,,,,,,,,,54781532UCO2001,PC,5,JNJ-54781532,ng/mL,PLASMA,2014-02-05,2014-02-05 07:45:00,27900,29.0,PREDOSE,-0.001,Y,,Y,37.0,USA,WHITE,M,JNJ-54781532 25 mg QD,2.0,JNJ-54781532 25 mg QD,2.0,,1.34,,,,,,,,,,,,,,,,,,,,,,,,,,,,,,,,,,,,,,,,,,,,,,,,,,,,,,,,,,,,,,,,,,,,,,,,,,,,,,,,,,,,,,,,,,,,,,,,,,,,,,,,,,,,,,,,,,,,,54781532UCO2001,US00920,3.0,Y,2014-02-05T07:40,30004,WEEK 4,4 | 14 | 23 | 32,JNJ-54781532 25 mg QD,2.0,Diastolic Blood Pressure (mmHg) | Heart Rate (BEATS/MIN) | Respiratory Rate (BREATHS/MIN) | Systolic Blood Pressure (mmHg),4 | 1 | 2 | 3,100,,64,18,136,,,,,,,,,,,,,,,,,,,,,,,,,,,,,,,,,,,,,,,,,,,,,,,,,,,,,,,,,,,,,,,,,,,,,,,,,,,
54781532UCO2001-003,WEEK 8,30008,30008-WEEK 8,,,,,,,,,,,,,,,,,,,,,,,,,,,,,,,,,,,,,,,,,,,,,,,,,,,,,,,,,,,,,,,,,,,,,,,,,,,,,,,,,,,,,,54781532UCO2001,3.0,US00920,37.0,YEARS,< 40 years,1.0,M,USA,North America,1.0,WHITE,Caucasian,1.0,94.3,>= 75 kg,2.0,1.0,<= 5 years,1.0,EXTENSIVE,Absent,9.0,>= 9,2.0,Moderate,1.0,2.0,3.0,3.51,>= 3 mg/L,2.0,Y,Y,N,N,Y,N,Y,N,N,Y,N,JNJ-54781532 25 mg QD,2.0,73 | 65 | 66 | 63 | 64 | 76 | 75 | 51 | 50 | 54 | 55 | 57 | 56 | 58 | 74 | 52 | 59 | 69 | 70 | 60 | 61 | 62 | 67 | 71 | 49 | 53 | 47 | 48 | 72 | 46 | 68,Calprotectin Score | Clinical Remission | Clinical Remission by Local Reader | Clinical Response | Clinical Response by Local Reader | Clinical Remission with Local Reader | CRP Score | Endoscopy Central Reading | Endoscopy Local Reading | IBDQ Bowel Dimension | IBDQ Emotional Dimension | IBDQ Social Dimension | IBDQ Systemic Dimension | IBDQ Total | Lactoferrin Score | Mayo Score | Number of Missing Subscores | Mucosal Healing | Mucosal Healing by Local Reader | Sensitivity Analysis 1 | Sensitivity Analysis 3 | Sensitivity Analysis 4 | Partial Mayo Clinical Remission | Partial Mayo Clinical Response | Physicians Global Assessment | Partial Mayo Score | Rectal Bleeding | Worse Rectal Bleeding | Evaluator 2 | Stool Frequency | UCEIS Score,31 | 20 | 21 | 17 | 18 | 34 | 33 | 6 | 5 | 9 | 10 | 12 | 11 | 13 | 32 | 7 | 26 | 27 | 14 | 15 | 16 | 22 | 29 | 4 | 8 | 2 | 3 | 1 | 24,, | Derived,,Y,8232.75 | 3.51 | 2 | 30 | 45 | 28 | 17 | 120 | 1e+06 | 9 | 7 | 3,-2249.75 | -0.67 | 1 | -1 | -4 | -6 | -3 | -14 | 0,2014-03-04 00:00:00,56,Y | ,2014-03-04,Y,Y,N,N,5983,2.84,3,3.0,29,41,22,14,106,1000000,10,10,8,N,2.0,7,2.0,2.0,,3,,3.0,8,N,N,N,N,N,N,0.0,N,N,10,,,54781532UCO2001,3.0,Y,N,JNJ-54781532 25 mg QD,2.0,JNJ-54781532 25 mg QD,2.0,2.0,1.0,Interpretation,2014-03-04T07:53,56.0,30008.0,WEEK 8,,,Y,NORMAL,,,,,,,,,,,,,54781532UCO2001,3.0,Y,N,JNJ-54781532 25 mg QD,2.0,JNJ-54781532 25 mg QD,2.0,5 | 14 | 23 | 32 | 41 | 50 | 59 | 65 | 69 | 74 | 81 | 90 | 99 | 108 | 113 | 120 | 126 | 130 | 134 | 141 | 150 | 159 | 165 | 172 | 182 | 192 | 202 | 212 | 222 | 232 | 242 | 252 | 262 | 272 | 282 | 292 | 302 | 309 | 312 | 315 | 318 | 321 | 324 | 327 | 330 | 333 | 336 | 339 | 342 | 345 | 348 | 351 | 354 | 357 | 360 | 363 | 366 | 369 | 372 | 375 | 378 | 381 | 384 | 387 | 390,CHEMISTRY | HEMATOLOGY | IMMUNOLOGY,33 | 31 | 6 | 11 | 3.42 | 1.428 | 2.07085 | 3.879 | 18 | 94 | 44.2 | 0.74994 | 3.4 | 2.09466 | 0 | 0.71038 | 61 | 132 | 0.5645 | 0.39 | 127 | 0.91 | 15.4 | 0.12 | 2.6 | 1.96 | 40.5 | 140 | 3.8 | 0.084 | 5 | 0.08 | 0.723 | 56 | 0.404 | 0.22 | 13,49 | 129 | 43 | 36 | 20.52 | 8.568 | 2.6447 | 50 | 6.82704 | 198 | 112 | 106.08 | 2.87 | 1.60332 | 5.4 | 4.88754 | 7.24 | 1.64679 | 84 | 147 | 3.62409 | 0.2 | 2 | 0.57 | 6.8 | 0.54 | 181 | 4.28 | 48.5 | 0.92 | 10.1 | 7.23 | 75 | 400 | 10.7 | 0.724 | 26 | 0.616 | 22 | 2.737 | 86 | 1.612 | 58 | 1.129 | 39,,NORMAL | HIGH |  | LOW,,1 | 2,,30008,WEEK 8,2014-03-04T07:50,56,SERUM |  | STOOL | BLOOD, | ASSAY YIELDING BY MASS RESULTS | ASSAY YIELDING BY VOLUME RESULTS | HIGH SENSITIVITY ASSAY | CALCULATED | FLOW CYTOMETRY,ROOM TEMPERATURE | FROZEN,Y,"SERUM Albumin (g/L) | Alkaline Phosphatase (U/L) | Alanine Aminotransferase (U/L) | Aspartate Aminotransferase (U/L) | Bilirubin (umol/L) | Blood Urea Nitrogen (mmol/L) | Calcium (mmol/L) | STOOL Calprotectin (ug/g) | STOOL Calprotectin (ug/L) | Cholesterol (mmol/L) | Creatine Kinase (U/L) | Chloride (mmol/L) | Creatinine (umol/L) | C Reactive Protein (mg/L) | HDL Cholesterol (mmol/L) | Potassium (mmol/L) | LDL Cholesterol (mmol/L) | STOOL Lactoferrin (ug/g) | STOOL Lactoferrin (ug/L) | Phosphate (mmol/L) | Protein (g/L) | Sodium (mmol/L) | Triglycerides (mmol/L) | Basophils (x10E9/L) | Basophils/Leukocytes (%) | Eosinophils (x10E9/L) | Eosinophils/Leukocytes (%) | Hematocrit (fraction) | Hemoglobin (g/L) | Lymphocytes (x10E9/L) | Lymphocytes/Leukocytes (%) | Monocytes (x10E9/L) | Monocytes/Leukocytes (%) | Neutrophils, Segmented (x10E9/L) | Neutrophils, Segmented/Leukocytes (%) | Platelets (x10E9/L) | Leukocytes (x10E9/L) | CD16 CD56 (x10E9/L) | CD16 CD56/Lymphocytes (%) | CD19 (x10E9/L) | CD19/Lymphocytes (%) | CD3 (x10E9/L) | CD3/Lymphocytes (%) | CD4 (x10E9/L) | BLOOD CD4 Central Memory T Cells (x10E6/L) | BLOOD CD4 Central Memory T Cells/Total Cells (%) | BLOOD CD4 Effector Memory T Cells (x10E6/L) | BLOOD CD4 Effector Memory T Cells/Total Cells (%) | CD4/Lymphocytes (%) | BLOOD CD4 Naive T Cells (x10E6/L) | BLOOD CD4 Naive T Cells/Total Cells (%) | CD4 Type 1 Helper T Cells/CD4 (%) | CD4 Type 1 Helper T Cells (x10E6/L) | BLOOD CD4 Regulatory T Cells/CD4 (%) | BLOOD CD4 Regulatory T Cells (x10E6/L) | CD8 (x10E9/L) | BLOOD CD8 Central Memory T Cells (x10E6/L) | BLOOD CD8 Central Memory T Cells/Total Cells (%) | BLOOD CD8 Effector Memory T Cells (x10E6/L) | BLOOD CD8 Effector Memory T Cells/Total Cells (%) | CD8/Lymphocytes (%) | BLOOD CD8 Naive T Cells (x10E6/L) | BLOOD CD8 Naive T Cells/Total Cells (%) | BLOOD CD8 Term Diff Eff Mem Cells (x10E6/L) | BLOOD CD8 Term Diff Eff Mem Cells/Total Cells (%)",1 | 2 | 3 | 4 | 8 | 9 | 10 | 11 | 36 | 37 | 39 | 40 | 42 | 54 | 59 | 60 | 62 | 79 | 84 | 86 | 87 | 5 | 7 | 43 | 44 | 53 | 55 | 63 | 66 | 70 | 71 | 77 | 78 | 80 | 89 | 12 | 13 | 14 | 15 | 16 | 17 | 18 | 19 | 20 | 21 | 22 | 23 | 24 | 25 | 26 | 27 | 28 | 29 | 30 | 31 | 32 | 33 | 34,38 | 122 | 42 | 25 | 5.13 | 4.284 | 2.32035 | 3293.1 | 5.0427 | 109 | 103 | 106.08 | 3.51 | 0.82752 | 3.7 | 3.59454 | 0.9687 | 68 | 140 | 1.37738 | 0.06 | 0.8 | 0.52 | 6.7 | 0.32 | 96 | 1.46 | 19 | 0.56 | 7.2 | 5.08 | 66.1 | 461 | 7.69 | 0.211 | 16.4 | 0.144 | 11.2 | 0.925 | 71.8 | 0.68 | 264.59 | 38.91 | 157.69 | 23.19 | 52.8 | 256.22 | 37.68 | 41.38 | 281.38 | 7.71 | 52.43 | 0.235 | 19.98 | 8.5 | 95.32 | 40.56 | 18.2 | 73.93 | 31.46 | 45.8 | 19.49,1 | 5 | -5 | -4 | 0 | 2689.9 | -899.9 | -0.258599999999999 | -51 | -1 | 8.84000000000002 | -0.67 | 0.02586 | 0.8 | -0.1293 | 0.29061 | 3 | -0.3387 | -0.02 | 3.9 | -0.01 | -6 | -0.21 | 6.6 | -0.15 | 1.3 | -2.42 | -11.5 | 21 | -2.81 | -0.016 | -1.3 | -0.0999999999999996 | -0.00900000000000001 | -0.899999999999991 | 0.023 | -46.87 | -7.94 | 59.12 | 7.65 | 1.6 | 8.10999999999996 | -0.0799999999999983 | 1.8 | 22.18 | -2.63 | -16.72 | -0.031 | -5.05 | -1.18 | -11.31 | 0.619999999999997 | -2.4 | -8.32000000000001 | 0.699999999999996 | -6.34999999999999 | -0.149999999999999,2.63157894736842 | 4.0983606557377 | -11.9047619047619 | -16 | 0 | 81.6829127569767 | -27.3268348972093 | -5.12820512820512 | -46.7889908256881 | -0.970873786407767 | 8.33333333333335 | -19.0883190883191 | 3.125 | 21.6216216216216 | -3.59712230215828 | 30 | 4.41176470588235 | -24.5901639344262 | -33.3333333333333 | 58.2089552238806 | -3.125 | -6.25 | -14.3835616438356 | 34.7368421052632 | -26.7857142857143 | 18.0555555555556 | -47.6377952755905 | -17.3978819969743 | 4.55531453362256 | -36.5409622886866 | -7.58293838862559 | -7.92682926829268 | -0.89285714285714 | -0.972972972972974 | -1.25348189415041 | 3.38235294117647 | -17.714199327261 | -20.4060652788486 | 37.4912803602004 | 32.9883570504528 | 3.03030303030303 | 3.16524861447192 | -0.212314225053074 | 4.34992750120831 | 7.88257871916981 | -34.1115434500649 | -31.8901392332634 | -13.1914893617021 | -25.2752752752753 | -13.8823529411765 | -11.8652958455728 | 1.52859960552268 | -13.1868131868132 | -11.2538888137427 | 2.22504767959312 | -13.8646288209607 | -0.769625448948171, | NORMAL-NORMAL,5, | NORMAL, | NORMAL,33 | 31 | 6 | 11 | 3.42 | 1.428 | 2.0709 | 3.879 | 18 | 94 | 44.2 | 0.7499 | 3.4 | 2.0947 | 0 | 0.7104 | 61 | 132 | 0.5645 | 0.39 | 127 | 0.91 | 15.4 | 0.12 | 2.6 | 1.96 | 40.5 | 140 | 3.8 | 0.084 | 5 | 0.08 | 0.723 | 56 | 0.404 | 0.22 | 13,49 | 129 | 43 | 36 | 20.52 | 8.568 | 2.6447 | 50 | 6.827 | 198 | 112 | 106.08 | 2.87 | 1.6033 | 5.4 | 4.8875 | 7.24 | 1.6468 | 84 | 147 | 3.6241 | 0.2 | 2 | 0.57 | 6.8 | 0.54 | 181 | 4.28 | 48.5 | 0.92 | 10.1 | 7.23 | 75 | 400 | 10.7 | 0.724 | 26 | 0.616 | 22 | 2.737 | 86 | 1.612 | 58 | 1.129 | 39,Y | , | Y, | Y, | Y,Y,,Y,2014-03-04,2014-03-04 08:45:00,39,127,37,21,0.04,0.8,5.13,4.284,2.32035,5983 | 2393.2,0.195,15.1,0.144,11.1,0.916,70.9,0.703,217.72 | 30.97,216.81 | 30.84,54.4,264.33,37.6,43.18,303.56,5.08,35.71,0.204,14.93 | 7.32,84.01 | 41.18,15.8,65.61,32.16,39.45 | 19.34,,4.7841,58,102,114.92,,2.84,0.52,10.6,,,,,0.31,0.85338,90,,4.5,3.46524,>800 | >800000,1.25,25.6,0.41,8.5,,2.66,54.6,1.25931,482,71,140,1.03868,4.88,,,,,,,,,,,,,,,,,,,,,,,,,,,,,,,,,,,,,,,,,,,,,,,,,,,,,,,,,,,,,,,,,,,,,,,,,,,,,,,,,,,,,,,,,,,,,,,,,,,,,,,,,54781532UCO2001,PC,6,JNJ-54781532,ng/mL,PLASMA,2014-03-04,2014-03-04 07:50:00,28200,56.0,PREDOSE,-0.001,Y,,Y,37.0,USA,WHITE,M,JNJ-54781532 25 mg QD,2.0,JNJ-54781532 25 mg QD,2.0,,4.51,,,,,,,,,,,,,,,,,,,,,,,,,,,,,,,,,,,,,,,,,,,,,,,,,,,,,,,,,,,,,,,,,,,,,,,,,,,,,,,,,,,,,,,,,,,,,,,,,,,,,,,,,,,,,,,,,,,,,54781532UCO2001,US00920,3.0,Y,2014-03-04T07:45,30008,WEEK 8,5 | 15 | 24 | 33 | 40,JNJ-54781532 25 mg QD,2.0,Diastolic Blood Pressure (mmHg) | Heart Rate (BEATS/MIN) | Respiratory Rate (BREATHS/MIN) | Systolic Blood Pressure (mmHg) | Weight (kg),4 | 1 | 2 | 3 | 5,78,,62,16,122,94.8,,,,,,,,,,,,,,,,,,,,,,,,,,,,,,,,,,,,,,,,,,,,,,,,,,,,,,,,,,,,,,,,,,,,,,,,,,
54781532UCO2001-003,WEEK 12,30012,30012-WEEK 12,,,,,,,,,,,,,,,,,,,,,,,,,,,,,,,,,,,,,,,,,,,,,,,,,,,,,,,,,,,,,,,,,,,,,,,,,,,,,,,,,,,,,,54781532UCO2001,3.0,US00920,37.0,YEARS,< 40 years,1.0,M,USA,North America,1.0,WHITE,Caucasian,1.0,94.3,>= 75 kg,2.0,1.0,<= 5 years,1.0,EXTENSIVE,Absent,9.0,>= 9,2.0,Moderate,1.0,2.0,3.0,3.51,>= 3 mg/L,2.0,Y,Y,N,N,Y,N,Y,N,N,Y,N,JNJ-54781532 25 mg QD,2.0,84 | 82 | 83 | 80 | 81 | 78 | 79 | 77,CRP Score | Partial Mayo Clinical Remission | Partial Mayo Clinical Response | Physicians Global Assessment | Partial Mayo Score | Rectal Bleeding | Worse Rectal Bleeding | Stool Frequency,33 | 22 | 29 | 4 | 8 | 2 | 3 | 1,, | Derived,,Y,3.51 | 2 | 7 | 3,-2.93 | 0 | -3,2014-04-02 00:00:00,85,,2014-03-04,Y,Y,N,N,,0.58,,,,,,,,,,,,N,2.0,4,2.0,2.0,,,,0.0,,Y,,,,,,,,,,,,,,,,,,,,,,,,,,,,,,,,,,,,,,,,,,,54781532UCO2001,3.0,Y,N,JNJ-54781532 25 mg QD,2.0,JNJ-54781532 25 mg QD,2.0,6 | 15 | 24 | 33 | 42 | 51 | 60 | 82 | 91 | 100 | 109 | 121 | 142 | 151 | 160 | 173 | 183 | 193 | 203 | 213 | 223 | 233 | 243 | 253 | 263 | 273 | 283 | 293 | 303,CHEMISTRY | HEMATOLOGY,33 | 31 | 6 | 11 | 3.42 | 1.428 | 2.07085 | 18 | 94 | 44.2 | 3.4 | 0.71038 | 61 | 132 | 0 | 0.39 | 127 | 0.91 | 15.4 | 0.12 | 2.6 | 1.96 | 40.5 | 140 | 3.8,49 | 129 | 43 | 36 | 20.52 | 8.568 | 2.6447 | 198 | 112 | 106.08 | 2.87 | 5.4 | 1.64679 | 84 | 147 | 0.2 | 2 | 0.57 | 6.8 | 0.54 | 181 | 4.28 | 48.5 | 0.92 | 10.1 | 7.23 | 75 | 400 | 10.7,,NORMAL | HIGH | LOW,,3,,30012,WEEK 12,2014-04-02T08:45,85,SERUM | , | HIGH SENSITIVITY ASSAY,ROOM TEMPERATURE,,"SERUM Albumin (g/L) | Alkaline Phosphatase (U/L) | Alanine Aminotransferase (U/L) | Aspartate Aminotransferase (U/L) | Bilirubin (umol/L) | Blood Urea Nitrogen (mmol/L) | Calcium (mmol/L) | Creatine Kinase (U/L) | Chloride (mmol/L) | Creatinine (umol/L) | C Reactive Protein (mg/L) | Potassium (mmol/L) | Phosphate (mmol/L) | Protein (g/L) | Sodium (mmol/L) | Basophils (x10E9/L) | Basophils/Leukocytes (%) | Eosinophils (x10E9/L) | Eosinophils/Leukocytes (%) | Hematocrit (fraction) | Hemoglobin (g/L) | Lymphocytes (x10E9/L) | Lymphocytes/Leukocytes (%) | Monocytes (x10E9/L) | Monocytes/Leukocytes (%) | Neutrophils, Segmented (x10E9/L) | Neutrophils, Segmented/Leukocytes (%) | Platelets (x10E9/L) | Leukocytes (x10E9/L)",1 | 2 | 3 | 4 | 8 | 9 | 10 | 37 | 39 | 40 | 42 | 59 | 79 | 84 | 86 | 5 | 7 | 43 | 44 | 53 | 55 | 63 | 66 | 70 | 71 | 77 | 78 | 80 | 89,38 | 122 | 42 | 25 | 5.13 | 4.284 | 2.32035 | 109 | 103 | 106.08 | 3.51 | 3.7 | 0.9687 | 68 | 140 | 0.06 | 0.8 | 0.52 | 6.7 | 0.32 | 96 | 1.46 | 19 | 0.56 | 7.2 | 5.08 | 66.1 | 461 | 7.69,1 | -22 | -28 | -10 | 0 | -0.0748500000000005 | -11 | -2.93 | 0.6 | 0.45206 | -1 | -0.04 | -0.4 | 0.14 | 6.8 | -24 | -0.12 | 8.3 | -0.13 | 1.5 | -2.61 | -15.9 | -20 | -2.77,2.63157894736842 | -18.0327868852459 | -66.6666666666667 | -40 | 0 | -3.22580645161293 | -10.0917431192661 | -83.4757834757835 | 16.2162162162162 | 46.6666666666667 | 1.47058823529412 | -0.714285714285714 | -50 | 26.9230769230769 | 101.492537313433 | -12.5 | -25 | -8.21917808219177 | 43.6842105263158 | -23.2142857142857 | 20.8333333333333 | -51.3779527559055 | -24.054462934947 | -4.33839479392625 | -36.0208062418726,,,,,33 | 31 | 6 | 11 | 3.42 | 1.428 | 2.0709 | 18 | 94 | 44.2 | 3.4 | 0.7104 | 61 | 132 | 0 | 0.39 | 127 | 0.91 | 15.4 | 0.12 | 2.6 | 1.96 | 40.5 | 140 | 3.8,49 | 129 | 43 | 36 | 20.52 | 8.568 | 2.6447 | 198 | 112 | 106.08 | 2.87 | 5.4 | 1.6468 | 84 | 147 | 0.2 | 2 | 0.57 | 6.8 | 0.54 | 181 | 4.28 | 48.5 | 0.92 | 10.1 | 7.23 | 75 | 400 | 10.7,Y,, | Y, | Y,Y,,,2014-03-04,2014-03-04 08:45:00,39,100,14,15,0.02,0.4,5.13,4.284,2.2455,,,,,,,,,,,,,,,,,,,,,,,,,,,98,103,106.08,,0.58,0.66,13.5,,,,,0.28,,72,,4.3,,,1.34,27.3,0.43,8.7,,2.47,50.2,1.42076,441,69,139,,4.92,,,,,,,,,,,,,,,,,,,,,,,,,,,,,,,,,,,,,,,,,,,,,,,,,,,,,,,,,,,,,,,,,,,,,,,,,,,,,,,,,,,,,,,,,,,,,,,,,,,,,,,,,,,,,,,,,,,,,,,,,,,,,,,,,,,,,,,,,,,,,,,,,,,,,,,,,,,,,,,,,,,,,,,,,,,,,,,,,,,,,,,,,,,,,,,,,,,,,,,,,,,,,,,,,,,,,,,,,,,,,,,,,,,,,,,,,,,,,,,,,,,,,,54781532UCO2001,US00920,3.0,Y,2014-04-02T08:35,30012,WEEK 12,6 | 16 | 25 | 34,JNJ-54781532 25 mg QD,2.0,Diastolic Blood Pressure (mmHg) | Heart Rate (BEATS/MIN) | Respiratory Rate (BREATHS/MIN) | Systolic Blood Pressure (mmHg),4 | 1 | 2 | 3,80,,64,20,128,,,,,,,,,,,,,,,,,,,,,,,,,,,,,,,,,,,,,,,,,,,,,,,,,,,,,,,,,,,,,,,,,,,,,,,,,,,
54781532UCO2001-003,WEEK 12 UNSCHEDULED 1,30012.01,30012.01-WEEK 12 UNSCHEDULED 1,,,,,,,,,,,,,,,,,,,,,,,,,,,,,,,,,,,,,,,,,,,,,,,,,,,,,,,,,,,,,,,,,,,,,,,,,,,,,,,,,,,,,,,,,,,,,,,,,,,,,,,,,,,,,,,,,,,,,,,,,,,,,,,,,,,,,,,,,,,,,,,,,,,,,,,,,,,,,,,,,,,,,,,,,,,,,,,,,,,,,,,,,,,,,,,,,,,,,,,,,,,,,,,,,,,,,,54781532UCO2001,3.0,Y,N,JNJ-54781532 25 mg QD,2.0,JNJ-54781532 25 mg QD,2.0,174 | 184 | 194 | 204 | 214 | 224 | 234 | 244 | 254 | 264 | 274 | 284 | 294 | 304,HEMATOLOGY,0 | 0.39 | 127 | 0.91 | 15.4 | 0.12 | 2.6 | 1.96 | 40.5 | 140 | 3.8,0.2 | 2 | 0.57 | 6.8 | 0.54 | 181 | 4.28 | 48.5 | 0.92 | 10.1 | 7.23 | 75 | 400 | 10.7,,NORMAL | HIGH | LOW,,2,,30012.01,WEEK 12 UNSCHEDULED 1,2014-04-09T08:05,92,,,ROOM TEMPERATURE,,"Basophils (x10E9/L) | Basophils/Leukocytes (%) | Eosinophils (x10E9/L) | Eosinophils/Leukocytes (%) | Hematocrit (fraction) | Hemoglobin (g/L) | Lymphocytes (x10E9/L) | Lymphocytes/Leukocytes (%) | Monocytes (x10E9/L) | Monocytes/Leukocytes (%) | Neutrophils, Segmented (x10E9/L) | Neutrophils, Segmented/Leukocytes (%) | Platelets (x10E9/L) | Leukocytes (x10E9/L)",5 | 7 | 43 | 44 | 53 | 55 | 63 | 66 | 70 | 71 | 77 | 78 | 80 | 89,0.06 | 0.8 | 0.52 | 6.7 | 0.32 | 96 | 1.46 | 19 | 0.56 | 7.2 | 5.08 | 66.1 | 461 | 7.69,-0.01 | 0.3 | 0.19 | 7.5 | -0.02 | -15 | 0.0700000000000001 | 11.5 | -0.0700000000000001 | 2.6 | -2.85 | -21.6 | -48 | -2.67,-16.6666666666667 | 37.5 | 36.5384615384615 | 111.940298507463 | -6.25000000000001 | -15.625 | 4.79452054794521 | 60.5263157894737 | -12.5 | 36.1111111111111 | -56.1023622047244 | -32.6777609682299 | -10.412147505423 | -34.7204161248375,,,,,0 | 0.39 | 127 | 0.91 | 15.4 | 0.12 | 2.6 | 1.96 | 40.5 | 140 | 3.8,0.2 | 2 | 0.57 | 6.8 | 0.54 | 181 | 4.28 | 48.5 | 0.92 | 10.1 | 7.23 | 75 | 400 | 10.7,,,,,Y,,,2014-03-04,2014-03-04 08:45:00,,,,,0.05,1.1,,,,,,,,,,,,,,,,,,,,,,,,,,,,,,,,,,,0.71,14.2,,,,,0.3,,81,,,,,1.53,30.5,0.49,9.8,,2.23,44.5,,413,,,,5.02,,,,,,,,,,,,,,,,,,,,,,,,,,,,,,,,,,,,,,,,,,,,,,,,,,,,,,,,,,,,,,,,,,,,,,,,,,,,,,,,,,,,,,,,,,,,,,,,,,,,,,,,,,,,,,,,,,,,,,,,,,,,,,,,,,,,,,,,,,,,,,,,,,,,,,,,,,,,,,,,,,,,,,,,,,,,,,,,,,,,,,,,,,,,,,,,,,,,,,,,,,,,,,,,,,,,,,,,,,,,,,,,,,,,,,,,,,,,,,,,,,,,,,,,,,,,,,,,,,,,,,,,,,,,,,,,,,,,,,,,,,,,,,,,,,,,,,,,,,,,,,,,,,,,,,,,,,,,,,,,,,,,,,,,,,,,,,,,,
54781532UCO2001-003,WEEK 16,30016,30016-WEEK 16,,,,,,,,,,,,,,,,,,,,,,,,,,,,,,,,,,,,,,,,,,,,,,,,,,,,,,,,,,,,,,,,,,,,,,,,,,,,,,,,,,,,,,54781532UCO2001,3.0,US00920,37.0,YEARS,< 40 years,1.0,M,USA,North America,1.0,WHITE,Caucasian,1.0,94.3,>= 75 kg,2.0,1.0,<= 5 years,1.0,EXTENSIVE,Absent,9.0,>= 9,2.0,Moderate,1.0,2.0,3.0,3.51,>= 3 mg/L,2.0,Y,Y,N,N,Y,N,Y,N,N,Y,N,JNJ-54781532 25 mg QD,2.0,92 | 94 | 93 | 90 | 91 | 88 | 89 | 86 | 87 | 85,Calprotectin Score | CRP Score | Lactoferrin Score | Partial Mayo Clinical Remission | Partial Mayo Clinical Response | Physicians Global Assessment | Partial Mayo Score | Rectal Bleeding | Worse Rectal Bleeding | Stool Frequency,31 | 33 | 32 | 22 | 29 | 4 | 8 | 2 | 3 | 1,, | Derived,,Y,8232.75 | 3.51 | 1e+06 | 2 | 7 | 3,-7622.17 | -3.09 | -914047 | 0 | -1,2014-04-30 00:00:00,113,,2014-03-04,Y,Y,N,N,610.58,0.42,,,,,,,,85953,,,,N,2.0,6,2.0,2.0,,,,2.0,,N,,,,,,,,,,,,,,,,,,,,,,,,,,,,,,,,,,,,,,,,,,,54781532UCO2001,3.0,Y,N,JNJ-54781532 25 mg QD,2.0,JNJ-54781532 25 mg QD,2.0,7 | 16 | 25 | 34 | 43 | 52 | 61 | 66 | 70 | 83 | 92 | 101 | 110 | 122 | 131 | 135 | 143 | 152 | 161 | 175 | 185 | 195 | 205 | 215 | 225 | 235 | 245 | 255 | 265 | 275 | 285 | 295 | 305,CHEMISTRY | HEMATOLOGY,33 | 31 | 6 | 11 | 3.42 | 1.428 | 2.07085 | 18 | 94 | 44.2 | 3.4 | 0 | 0.71038 | 61 | 132 | 0.39 | 127 | 0.91 | 15.4 | 0.12 | 2.6 | 1.96 | 40.5 | 140 | 3.8,49 | 129 | 43 | 36 | 20.52 | 8.568 | 2.6447 | 50 | 198 | 112 | 106.08 | 2.87 | 5.4 | 7.24 | 1.64679 | 84 | 147 | 0.2 | 2 | 0.57 | 6.8 | 0.54 | 181 | 4.28 | 48.5 | 0.92 | 10.1 | 7.23 | 75 | 400 | 10.7,,NORMAL | HIGH |  | LOW,,3,,30016,WEEK 16,2014-04-30T10:35,113,SERUM |  | STOOL, | ASSAY YIELDING BY MASS RESULTS | ASSAY YIELDING BY VOLUME RESULTS | HIGH SENSITIVITY ASSAY,ROOM TEMPERATURE | FROZEN,,"SERUM Albumin (g/L) | Alkaline Phosphatase (U/L) | Alanine Aminotransferase (U/L) | Aspartate Aminotransferase (U/L) | Bilirubin (umol/L) | Blood Urea Nitrogen (mmol/L) | Calcium (mmol/L) | STOOL Calprotectin (ug/g) | STOOL Calprotectin (ug/L) | Creatine Kinase (U/L) | Chloride (mmol/L) | Creatinine (umol/L) | C Reactive Protein (mg/L) | Potassium (mmol/L) | STOOL Lactoferrin (ug/g) | STOOL Lactoferrin (ug/L) | Phosphate (mmol/L) | Protein (g/L) | Sodium (mmol/L) | Basophils (x10E9/L) | Basophils/Leukocytes (%) | Eosinophils (x10E9/L) | Eosinophils/Leukocytes (%) | Hematocrit (fraction) | Hemoglobin (g/L) | Lymphocytes (x10E9/L) | Lymphocytes/Leukocytes (%) | Monocytes (x10E9/L) | Monocytes/Leukocytes (%) | Neutrophils, Segmented (x10E9/L) | Neutrophils, Segmented/Leukocytes (%) | Platelets (x10E9/L) | Leukocytes (x10E9/L)",1 | 2 | 3 | 4 | 8 | 9 | 10 | 11 | 37 | 39 | 40 | 42 | 59 | 62 | 79 | 84 | 86 | 5 | 7 | 43 | 44 | 53 | 55 | 63 | 66 | 70 | 71 | 77 | 78 | 80 | 89,38 | 122 | 42 | 25 | 5.13 | 4.284 | 2.32035 | 3293.1 | 109 | 103 | 106.08 | 3.51 | 3.7 | 0.9687 | 68 | 140 | 0.06 | 0.8 | 0.52 | 6.7 | 0.32 | 96 | 1.46 | 19 | 0.56 | 7.2 | 5.08 | 66.1 | 461 | 7.69,2 | -29 | -25 | -10 | 0 | 0.357 | 0.0748499999999996 | -2682.52 | -3048.87 | -18 | -8.83999999999999 | -3.09 | 0.8 | 0.19374 | -1 | -0.03 | 0.1 | -0.15 | 3 | -0.04 | -20 | -0.43 | 7.9 | -0.17 | 3.1 | -13.9 | 18 | -3.87,5.26315789473684 | -23.7704918032787 | -59.5238095238095 | -40 | 0 | 8.33333333333334 | 3.22580645161289 | -81.45880781027 | -92.5835838571559 | -16.5137614678899 | -8.33333333333332 | -88.034188034188 | 21.6216216216216 | 20 | 2.94117647058824 | -0.714285714285714 | -50 | 12.5 | -28.8461538461539 | 44.7761194029851 | -12.5 | -20.8333333333333 | -29.4520547945205 | 41.578947368421 | -30.3571428571429 | 43.0555555555556 | -60.8267716535433 | -21.0287443267776 | 3.90455531453362 | -50.3250975292588,,,,,33 | 31 | 6 | 11 | 3.42 | 1.428 | 2.0709 | 18 | 94 | 44.2 | 3.4 | 0 | 0.7104 | 61 | 132 | 0.39 | 127 | 0.91 | 15.4 | 0.12 | 2.6 | 1.96 | 40.5 | 140 | 3.8,49 | 129 | 43 | 36 | 20.52 | 8.568 | 2.6447 | 50 | 198 | 112 | 106.08 | 2.87 | 5.4 | 7.24 | 1.6468 | 84 | 147 | 0.2 | 2 | 0.57 | 6.8 | 0.54 | 181 | 4.28 | 48.5 | 0.92 | 10.1 | 7.23 | 75 | 400 | 10.7,Y | ,,,,Y,,,2014-03-04,2014-03-04 08:45:00,40,93,17,15,0.03,0.9,5.13,4.641,2.3952,610.58 | 244.23,,,,,,,,,,,,,,,,,,,,,,,,,,91,103,97.24,,0.42,0.37,9.7,,,,,0.28,,76,,4.5,,,1.03,26.9,0.39,10.3,,1.99,52.2,1.16244,479,70,139,,3.82,85.95 | 85953,,,,,,,,,,,,,,,,,,,,,,,,,,